,meanSpeed,sdSpeed,maxAccelX,maxAccelY,maxAccelZ,maxGyroX,maxGyroY,maxGyroZ,minAccelX,minAccelY,minAccelZ,minGyroX,minGyroY,minGyroZ,meanAccelX,meanAccelY,meanAccelZ,meanGyroX,meanGyroY,meanGyroZ,sdAccelX,sdAccelY,sdAccelZ,sdGyroX,sdGyroY,sdGyroZ,pothole
0,0.0,0.0,0.217666625976562,-0.946929931640625,0.21209716796875,0.0329595479669297,0.048733983735687,0.107899303145105,0.0113525390625,-0.98004150390625,0.158340454101562,-0.014854313612135,-0.0873756522044097,-0.0033537187607367,0.06948242187499995,-0.957383728027344,0.19616241455078137,-0.0043633763932076205,-0.004649932526500125,0.01276189457527058,0.055730076549208626,0.008746670254265627,0.014409890408871945,0.01740072246636569,0.03312513458342208,0.03391720881049507,False
1,0.0479999989271164,0.10119288286355091,0.0785064697265625,-0.933135986328125,0.271774291992188,-0.0031795480254456,0.0096606168542624,0.0072680329309352,0.058868408203125,-0.970932006835938,0.14947509765625,-0.0234786944862476,-0.0094326502649516,-0.0097604853951404,0.06686553955078126,-0.9525390625,0.2123001098632813,-0.01414375560169093,-0.0005465072872951588,-0.0017427193541260377,0.006927798129431469,0.013311346398100518,0.04905685946856204,0.00710688513632213,0.005323735787674826,0.005046382461411891,False
2,0.2259999930858613,0.08002777028888344,0.06744384765625,-0.946182250976562,0.209808349609375,-0.0063337960205354,0.0054416370553589,0.0020445087688538,0.0550079345703125,-0.9678955078125,0.152145385742188,-0.0190519881223179,-0.0052216599493183,-0.0055401740156918,0.06222686767578125,-0.9588668823242184,0.1801025390625001,-0.013297296480820139,-0.0008710933609540001,-0.00151997256055179,0.004531277762890678,0.007015046718954696,0.02092630384331174,0.0036947555170133766,0.004021726212935188,0.0025294318217776893,False
3,0.05699999928474429,0.1802498243677605,0.10113525390625,-0.91070556640625,0.368362426757812,0.0032314796667021,0.0086475503755962,0.0052911684537694,0.06646728515625,-0.949661254882812,0.195022583007812,-0.0212160728241162,-0.0148415304389026,-0.0097993675470555,0.0846282958984375,-0.923638916015625,0.3144317626953124,-0.00903384189171228,-0.001856303174617924,-0.00232675058118041,0.00886803865665544,0.012039828555212764,0.052291806643990156,0.008126306789827816,0.006321233752540076,0.004978006449854001,False
4,1.288999998569491,0.6616889318976761,0.110000610351562,-0.890090942382812,0.365234375,-0.0053862433046852,0.0597397632565485,0.0158157147656536,0.028350830078125,-0.939727783203125,0.306640625,-0.0269280207301182,-0.0083807016343703,-0.0301610982934744,0.0785491943359375,-0.921405029296875,0.33385009765625,-0.0178772677654839,0.019687791200963402,-0.005778154090701331,0.024362633684623467,0.01705247305009347,0.021517197265313762,0.006549428880991992,0.02264862203656603,0.01637441590900423,False
5,4.352000141143797,1.6806996346921836,0.166305541992188,-0.79962158203125,0.427749633789062,0.0628141164189359,0.0043729105099101,0.102189752084084,-0.10089111328125,-0.956985473632812,0.307586669921875,-0.094878842259599,-0.112752914231775,0.0019358517963786,0.037158203125000046,-0.90087890625,0.3515045166015625,-0.009045160326345131,-0.05716187658457365,0.045902111390551184,0.0851079109242529,0.045010993158915,0.036605942594217886,0.041293158347861604,0.04312631565658289,0.035257018330633605,False
6,7.833999824523924,1.4721274652878025,0.120223999023438,-0.863433837890625,0.461563110351562,0.112320416870746,-0.0037428065959973,0.253600313751122,-0.141555786132812,-0.973876953125,0.271392822265625,-0.0787928166433024,-0.280897182292217,-0.0029294771990871,0.0186462402343751,-0.9272064208984375,0.3336563110351562,0.01702566874370926,-0.06552135282505603,0.05056208403436095,0.06867687387912794,0.0312713172842534,0.054883343339368715,0.047794737186633345,0.08282465469545099,0.07359219061658157,False
7,9.529999923706054,0.6290203256077814,0.123641967773438,-0.869659423828125,0.355087280273438,0.0191686345780633,0.0360876969833367,0.0652932530776907,-0.09063720703125,-0.961700439453125,0.22021484375,-0.0361875655242147,-0.124489997787972,-0.0586257629725683,0.03093719482421875,-0.9253692626953127,0.2864013671875,-0.0029847377917063,-0.027955068804507273,0.00825143179505792,0.06704402041124544,0.03095840634227861,0.039479727688647305,0.019285105751810257,0.05471285458400176,0.04190884628079124,False
8,11.7229999542236,0.37070677429132176,0.128250122070312,-0.853744506835938,0.330764770507812,0.0598220549342319,0.0549247680056852,0.0783486013734771,-0.0951690673828125,-1.01036071777344,0.21051025390625,-0.105260110504837,-0.144743071561916,-0.0598612034022561,0.07349090576171866,-0.9297073364257816,0.2783599853515623,-0.00962999050172655,-0.008979220457754771,-0.0015681225130604695,0.06859844390008382,0.05196563268683134,0.042221308728459875,0.05561660167258424,0.07075187278188606,0.04198125737507939,False
9,12.487000370025639,0.1588883763701123,0.299819946289062,-0.918167114257812,0.324020385742188,0.0201904894883267,0.215428959530908,0.0333006989025688,-0.0314483642578125,-1.03565979003906,0.160125732421875,-0.10571817421233,-0.0617467214540322,-0.137944021298943,0.10389251708984375,-0.9670989990234373,0.25803833007812493,-0.04047855719899393,0.04759313878791889,-0.03529583266481255,0.08876902711319684,0.0344462166345455,0.05062619341809387,0.045564520602800994,0.07953886117939478,0.05221547521038259,False
10,12.842999839782731,0.08538164158213847,0.218154907226562,-0.8758544921875,0.354888916015625,0.0638879029704559,0.274971382550681,0.0543034525233697,0.08367919921875,-1.01014709472656,0.19476318359375,-0.0847002405733161,0.020367323384708,-0.118860341559653,0.1483718872070313,-0.9409591674804684,0.24444427490234372,-0.017693136807715816,0.10169562917543118,-0.028804883508351486,0.04601795395753222,0.04711643163440725,0.04616207832626989,0.04744925603226279,0.07588411334713185,0.06012654548579895,False
11,13.300999832153328,0.22213329871060136,0.250396728515625,-0.87274169921875,0.40948486328125,0.0624697696899887,0.175438133653951,0.0902657146193637,0.059051513671875,-1.09590148925781,0.198974609375,-0.0705905468019673,-0.0251767259972821,-0.114484235256435,0.1291229248046874,-0.9515289306640622,0.2848114013671873,-0.01396005074969726,0.02572754760554318,0.00693431221473746,0.06391522608043425,0.06349420269769628,0.05776277842206461,0.03877465304572882,0.059668574956442774,0.05872884409545639,False
12,13.804999637603748,0.17958283874965114,0.119430541992188,-0.889266967773438,0.29791259765625,0.0566398437476962,0.194368415314452,0.110134494248009,-0.0885467529296875,-0.976882934570312,0.140914916992188,-0.0205614678281748,-0.136114962262277,-0.133352198947429,0.0181411743164063,-0.9257614135742187,0.229425048828125,0.011023436278888668,-0.012621599249045263,0.012406895201963027,0.062840027052684,0.029035499056906108,0.05237810948922066,0.026080572810566523,0.08939168276031421,0.07099892347980363,False
13,13.905999946594221,0.21716334477686294,0.154067993164062,-0.892776489257812,0.277877807617188,0.0460404626091809,0.0358671872450782,0.155737665806199,-0.173141479492188,-0.99200439453125,0.213531494140625,-0.0468881467841531,-0.221212280154124,-0.0532168827986174,-0.03884887695312504,-0.9438873291015625,0.2456298828125,-0.013287629206063148,-0.05468646835134494,0.05374227121846818,0.11391450584186161,0.03874172133582203,0.026722153457092272,0.029229094518192736,0.08222493526083924,0.07205432456377205,False
14,13.381000041961642,0.056657019673162126,0.418609619140625,-0.736679077148438,0.307296752929688,0.0395783022241036,0.0677425623322366,0.175696726595798,-0.327728271484375,-1.00801086425781,0.127777099609375,-0.115645906123928,-0.222456509015409,-0.149562594186632,-0.017810058593749956,-0.9031982421874998,0.24235229492187518,-0.010946630713050801,-0.0321625437475016,-0.019114306091825663,0.21455157283246654,0.09203461906720971,0.058614361104876854,0.04908499716246635,0.09082749108159931,0.08949818248451077,False
15,13.25399971008299,0.0935946771052138,0.182754516601562,-0.9088134765625,0.268280029296875,0.0599573435176079,0.0811840689860845,0.0725349207138342,-0.0127716064453125,-0.9852294921875,0.141586303710938,-0.0546371466079566,-0.0689433816677533,-0.0871322392807765,0.07159576416015616,-0.9509033203125,0.2272628784179688,-0.016115560072785605,0.004464390093354332,-0.010518793883929558,0.0678357534123862,0.02664326356559902,0.04555496671240105,0.032386339521298005,0.05239030215267604,0.04825772126352938,False
16,12.42700033187867,0.615396097454626,0.18896484375,-0.927536010742188,0.217071533203125,0.0866882903270603,0.117215040638203,0.0725668786469151,0.0045013427734375,-1.06562805175781,0.119796752929688,-0.0483177316573076,-0.0941595224491686,-0.0473821631663628,0.0802505493164063,-0.994409179687499,0.15748138427734387,-0.0012041749184902397,0.001602690344009721,-0.00449456370850493,0.057482687728572866,0.05120873818070525,0.02653680904770922,0.0382863682541974,0.05578449471704123,0.039391735760033034,False
17,10.112000083923343,0.9944043572594126,0.151229858398438,-0.893112182617188,0.1888427734375,0.0612929188042827,0.0857631081643667,0.0504349447239206,-0.0754852294921875,-1.03105163574219,0.0095672607421875,-0.0767845268652736,-0.0490477041120983,-0.0351872822187809,0.055438232421875046,-0.9858749389648432,0.09684295654296865,-0.0040470993821498085,-0.006887200895053919,0.004027951253912131,0.0665564248453485,0.040757268818259605,0.05234141188886721,0.04467036514482599,0.03972050910075752,0.023900673726306797,False
18,6.623000073432924,1.3641933835061684,0.0850067138671875,-0.965057373046875,0.111373901367188,0.0060967746835184,0.0097429085319458,0.0160804329780074,-0.0016326904296875,-1.0423583984375,-0.0129241943359375,-0.0487126784469664,-0.0414310633944717,-0.0186306760378673,0.0508026123046875,-0.9962158203125007,0.04971313476562505,-0.01458376307699378,-0.00437320345763004,-0.00280356294274819,0.02552697077897602,0.02267510818634759,0.03646956778753209,0.017077621761225712,0.015105159610517314,0.011890031059718148,False
19,2.9830000877380356,0.7827593802067997,0.11846923828125,-0.87030029296875,0.3802490234375,0.0044599958775557,0.0480785797914185,-4.02137324601965e-05,0.03436279296875,-1.00704956054688,0.0921783447265625,-0.0415631561845396,-0.0318338297741532,-0.0151022539096213,0.0852508544921875,-0.940591430664063,0.25099334716796873,-0.01649050652265785,0.00585043228268606,-0.005728246451873189,0.027524486100504432,0.04035784372854583,0.1182930626756769,0.014027811028503315,0.02347970071541802,0.004887215994179699,False
20,3.1330000162124643,0.9292296398553841,0.244049072265625,-0.824050903320312,0.464141845703125,0.0465243589792483,0.141724911098529,0.111697503491776,0.0281829833984375,-0.9600830078125,0.373748779296875,-0.0578811431317822,-0.134305876933786,-0.0956495610790679,0.11241302490234366,-0.8992233276367188,0.413226318359375,-0.0043162118103023195,0.012366468416615728,-0.004660824855358611,0.06868584891723173,0.04421310204725593,0.03130488642055079,0.0347876825678415,0.08946385254551172,0.06329581776292781,False
21,5.808000040054322,0.7199352407354527,0.227081298828125,-0.864181518554688,0.450576782226562,0.18544868987545,0.114164123293408,0.0867657883147816,-0.11126708984375,-0.99163818359375,0.25994873046875,-0.10219640998681,-0.135223602245427,-0.049640257454641,0.0781570434570312,-0.9324371337890627,0.3983764648437501,0.0217923276207876,-0.0033315079972455032,0.00876142714380808,0.09918339666876809,0.03631039731532246,0.059054339744021765,0.0817265963445843,0.0841153955125801,0.05467902644193167,False
22,7.967999839782709,0.8062230882935691,0.115432739257812,-0.800186157226562,0.469345092773438,0.0489198723797745,0.0630111903396018,0.067251475427226,-0.140869140625,-0.964691162109375,0.3123779296875,-0.101124221331944,-0.0966799381048196,-0.0343758170346338,-0.0061111450195313,-0.8949844360351562,0.37666168212890627,-0.01821972365005722,-0.027536739460477633,0.00894734241950652,0.07582374511715129,0.044340293081461,0.04300852428436863,0.045584651339309674,0.046339390667430404,0.03443072607344205,False
23,11.02099990844725,0.8701778691020985,0.12542724609375,-0.90264892578125,0.308975219726562,0.0202184526797726,0.119398033783741,0.027794080716612,0.025360107421875,-1.00177001953125,0.185394287109375,-0.0537732171503349,-0.0496431869318401,-0.0945704482053678,0.07683715820312495,-0.9479476928710937,0.24061584472656228,-0.02138268018191161,0.018216181645807426,-0.03822315270341677,0.0408549106891,0.03797744587867669,0.043395285489535286,0.027438034621488687,0.051739631475756574,0.04307023642609162,False
24,11.209999942779515,0.6202151237734446,0.198898315429688,-0.937393188476562,0.199859619140625,0.0276332257867712,0.160530556820014,0.0713032087096725,-0.048828125,-1.00735473632812,0.0245819091796875,-0.153266518630714,-0.0669292329353264,-0.151253435162723,0.0614013671875,-0.9663299560546867,0.11933593749999975,-0.02074677057682247,0.005452556015828197,-0.006197282383057973,0.0799926874497197,0.022674784396106696,0.04718924190328584,0.05124404336851055,0.06582299039938133,0.060545385289475395,False
25,8.017000007629395,1.6118591944124394,0.0630340576171875,-0.947830200195312,0.221420288085938,0.0088720548554899,0.0158953432822469,0.0609757363184542,-0.0477294921875,-1.0316162109375,-7.62939453125e-05,-0.0531966427743328,-0.0882622185312971,-0.0170096098823361,0.03758544921875,-1.003329467773438,0.0502410888671876,-0.01999647820291446,-0.01178115887223804,0.015072533031856059,0.03162091701705058,0.027194055968638015,0.06861895828235651,0.020035793211155083,0.03030480427755261,0.025333168851697962,False
26,4.332000041007992,0.5619174436899326,0.163101196289062,-0.865066528320312,0.5374755859375,0.0821191048448113,0.0222741467252047,0.0864219742180524,-0.0234222412109375,-0.964096069335938,0.226638793945312,-0.0694951886456177,-0.110083361555079,-0.0635305067521672,0.04681854248046865,-0.9173629760742189,0.3826339721679688,-0.007205581803372887,-0.02441748540211138,0.00734611681409641,0.05930562531320857,0.03306083174462904,0.09865555276845635,0.04102345238698372,0.04651123323301633,0.04241931924556046,False
27,6.09400005340576,1.0853078847427649,0.366500854492188,-0.66595458984375,0.43157958984375,0.108700382001001,0.204570985450546,0.0631137220415699,0.048614501953125,-0.951766967773438,0.273086547851562,-0.208595021857655,-0.0383524491743401,-0.191959053476257,0.14166412353515634,-0.8757553100585938,0.3802261352539062,-0.04940981412551639,0.048606018845308664,-0.051276476996774664,0.09814818626132951,0.08875802350137849,0.04822381822706166,0.08303824672018148,0.07225059190962489,0.08207765102492572,False
28,9.483999824523924,1.2478534998697186,0.244461059570312,-0.840225219726562,0.476852416992188,0.0922617538563781,0.1340845682472,0.0978091184070132,-0.093994140625,-0.976974487304688,0.36004638671875,-0.198212688347982,-0.202695054778694,-0.0603251260641479,0.0700576782226561,-0.9213607788085939,0.4162902832031251,-0.023418400519168235,-0.007290723063422799,0.018544416250159672,0.10415707013757981,0.04935136037351236,0.04409126252312586,0.07691240319940496,0.10424474651497775,0.06057376308541844,False
29,12.01400012969969,0.7455972846920992,0.065460205078125,-0.870437622070312,0.39495849609375,0.0552616578835802,0.0477470162357036,0.0881506320816228,-0.10882568359375,-1.03562927246094,0.31671142578125,-0.0680363090004723,-0.166003885492345,-0.040130641834186,-0.022064208984375,-0.9234329223632812,0.36227722167968757,-0.005092017267453321,-0.025706375474876995,0.015580930483952187,0.06428512519701285,0.04600722441360747,0.030019255167840764,0.04525989352059628,0.07733983585550464,0.04296796070452197,False
30,13.724999809265109,0.33170451461081457,0.0588226318359375,-0.867324829101562,0.323684692382812,0.0589293633368373,0.0800277244407721,0.0772561726943266,-0.144775390625,-0.985488891601562,0.200439453125,-0.0718664672802243,-0.163351110730517,-0.0834123358701538,-0.00454254150390625,-0.9234436035156246,0.27812347412109373,-0.010610939257646312,-0.018758401243747502,0.0024986842611559395,0.06407713156419584,0.03486408718897933,0.036770256484455685,0.04775741992457793,0.07478777632040873,0.054811415157424964,False
31,14.32500019073484,0.05986088626097571,0.232757568359375,-0.83160400390625,0.327789306640625,0.0405892381738977,0.0705774973126259,0.0817531865110344,-0.0681610107421875,-1.00666809082031,0.1697998046875,-0.0867415535488619,-0.118323714600003,-0.0831609334632503,0.06131896972656255,-0.9267791748046873,0.2311218261718749,-0.032388992334991096,0.009887837758467941,-0.016776822971452287,0.09276127769019557,0.050240381765681054,0.04672694213000192,0.044989630069424504,0.056467219666771366,0.04670742671635759,False
32,14.43300018310548,0.14591076807429565,0.11663818359375,-0.86517333984375,0.340652465820312,0.0859713673616109,0.0826163170203291,0.200513393213701,-0.06951904296875,-1.00532531738281,0.217666625976562,-0.110463927274852,-0.0973254883530548,-0.0544712316720447,0.0331939697265625,-0.9342666625976559,0.256329345703125,-0.0192265583317726,0.00852986528702569,0.00884395850598964,0.05673603958776202,0.04838601146325712,0.038612693130815764,0.05168346714563983,0.05345036713602602,0.07358099926253345,False
33,14.954999923706072,0.1446259308872253,0.109786987304688,-0.853164672851562,0.2708740234375,0.0068033113207164,0.073504045034514,0.0531226068960286,-0.043701171875,-0.993270874023438,0.17962646484375,-0.077605046797127,-0.0753083366730427,-0.082478098959754,0.01303710937500005,-0.9253784179687499,0.2283920288085938,-0.02357579333959186,-0.0061238856634154085,-0.00811555731624207,0.05229944117980529,0.041513071855745584,0.03699015996982,0.027034371193158397,0.04815289104403728,0.04562243700294829,False
34,14.709999752044713,0.3339991938010288,0.116012573242188,-0.91217041015625,0.1925048828125,0.039490417908131,0.107486779492252,0.0551756377803707,-0.075469970703125,-1.04248046875,0.109359741210938,-0.0707431459324288,-0.0513084615614666,-0.0515492113240098,0.03585205078125005,-0.969244384765625,0.14534149169921878,-0.008034197744940148,0.01951684289059117,-0.00919544250665831,0.05345542812007123,0.04067601926533618,0.02263376694559151,0.0337324784123995,0.05110783646765253,0.035973913110264884,False
35,12.938999938964841,0.9899548190904318,0.1531982421875,-0.928924560546875,0.09814453125,0.0518418927278095,0.0532597596921677,0.123412482810926,-0.07550048828125,-1.06890869140625,-0.0374908447265625,-0.0744087208568139,-0.10349816312764,-0.0447576179120897,0.0260009765625,-1.0039916992187499,0.0332183837890625,-0.01181490112324933,-0.01023969460168921,0.0095013864526866,0.07060515976881157,0.043401197219255866,0.04662631713421085,0.04208441239740881,0.042559304993996266,0.04768440874805027,False
36,9.230000066757205,1.599478858277812,0.062835693359375,-0.971511840820312,0.0109710693359375,0.0253125472128761,0.0852496507061995,0.0299232780081303,-0.132156372070312,-1.03651428222656,-0.0964813232421875,-0.0259849953881211,-0.0903072599323689,-0.0399194531597427,0.01947631835937505,-1.0058135986328112,-0.0322052001953125,-0.01117694088412084,-0.0018409633667390707,0.006394223145669351,0.05643965989085552,0.021443005671109433,0.027739420209541815,0.014800339470499723,0.05281852576027278,0.025735416083604214,False
37,4.425000131130216,1.346198433492842,0.0348358154296875,-0.97491455078125,0.01910400390625,-0.0062379222212926,0.0330951028664147,0.043559728053772,-0.0195159912109375,-1.03836059570312,-0.0294647216796875,-0.0325978906908969,-0.023258184747989,-0.0312489995987718,0.01385498046875,-1.016061401367187,-0.00627288818359375,-0.019138674015799946,0.0038474954584483793,-9.925601382723988e-05,0.016769084439398552,0.01797276247070343,0.014230406726478954,0.00745317964795671,0.017240217392381053,0.020807233865957946,False
38,0.7119999796152103,0.8419659263422119,0.048797607421875,-0.940185546875,0.23760986328125,-0.0035750274473223,-0.00100933805314,0.0149507200435958,0.013153076171875,-1.0064697265625,0.0720367431640625,-0.01912389347175,-0.0233761627842795,-0.0055162055658811,0.038507080078125,-0.966851806640625,0.17773132324218746,-0.01230353792005706,-0.0066213108918203815,0.0005308479000855099,0.010759208180199216,0.017494874602917376,0.04875672832017038,0.0040927041109249315,0.006138423089562239,0.005623105053746922,False
39,0.33899999856948854,0.06573516307306333,0.06890869140625,-0.957794189453125,0.208328247070312,-0.004405401075209,-0.002051699303797,0.0144095657100917,0.0326385498046875,-0.999359130859375,0.191604614257812,-0.0590209760783361,-0.0336527687986773,-0.0076400765352193,0.04331817626953125,-0.9659286499023437,0.19741821289062492,-0.017742325393049582,-0.00754327062959491,0.0005841643851088902,0.009909307802195297,0.01280097607697257,0.005219115580433516,0.014937583116708106,0.009556517695011216,0.005685085125005323,False
40,0.0759999990463256,0.09811557687273285,0.0617523193359375,-0.944320678710938,0.225341796875,-0.0102105596193638,0.0192099135749596,0.0009291769043286,0.0395965576171875,-0.964736938476562,0.192642211914062,-0.0160042665708312,-0.0073697656845762,-0.0214783941914891,0.04355316162109375,-0.9607391357421875,0.1984237670898436,-0.013614984967255698,-0.00278390881390338,-0.0026911242815250503,0.00652129159081151,0.005883291671081069,0.009627857792756806,0.0017501684768600988,0.007856909073500479,0.006659913417132528,False
41,0.2010000064969064,0.17891339389247535,0.05352783203125,-0.9345703125,0.271270751953125,-0.0020722056441906,0.0043010051604779,0.0052181978399012,0.027374267578125,-0.97601318359375,0.145370483398438,-0.0192171041099028,-0.0062776033215347,-0.0086155924425153,0.0430145263671875,-0.9573165893554687,0.2067352294921876,-0.013219052807993611,-0.0015095596006895902,0.00018841864712310137,0.008580367428492249,0.015065964480112376,0.05359978599605579,0.005875798277165488,0.0031359365801400473,0.004172353722198553,False
42,0.6900000095367431,0.745654088401802,0.2462158203125,-0.892333984375,0.381134033203125,0.0543287525537255,0.377249817899065,-0.007598531222214,0.0644683837890625,-0.996673583984375,0.27972412109375,-0.0410169418449644,0.0064563014306791,-0.119860092232869,0.15498046875000004,-0.9216705322265625,0.3385894775390626,0.0019124426103968202,0.18187331621718555,-0.06346302225014458,0.06598250122713427,0.029681642725561556,0.03452978053953163,0.030840381413909823,0.14308746942964462,0.0453494360173809,False
43,3.5509999513626105,0.8573401375350318,0.445770263671875,-0.769287109375,0.460556030273438,0.0219558989749403,0.604904284730091,-0.0447040883741791,0.103286743164062,-0.96148681640625,0.267822265625,-0.12489320037701,0.375770165597417,-0.304497050608063,0.25960235595703146,-0.867559814453125,0.3551788330078126,-0.053049263439607794,0.4749509717554868,-0.1589287719507752,0.09829301421221318,0.06468545146054233,0.047728480235909344,0.047933770000069334,0.06431607265920114,0.0685878676786991,False
44,6.72300004959106,1.0223943401857642,0.3172607421875,-0.671051025390625,0.488006591796875,0.0313115838843886,0.348160908260457,0.127184051546696,-0.0370025634765625,-0.975631713867188,0.216476440429688,-0.277418827592464,0.0061990400693774,-0.179154042322938,0.15744628906250005,-0.8886016845703125,0.3442077636718751,-0.06673703259945538,0.22230883673296392,-0.10627906256951206,0.123839705166756,0.09804357177578851,0.08513214502186406,0.09006385961022233,0.11787000369488362,0.09952540789661618,False
45,8.752000045776366,0.2695180610199212,0.254409790039062,-0.846359252929688,0.312911987304688,0.087921067595658,0.0845247382574799,0.165576181821278,-0.0210113525390625,-1.02336120605469,0.16241455078125,-0.108844192699865,-0.185632447990665,-0.0758215278151009,0.0661422729492187,-0.9288665771484379,0.22874603271484378,-0.01386359105501454,-0.010332452502456721,0.011293214497313691,0.07767932418891751,0.059555351397105466,0.04583540405690144,0.06456257443794833,0.07645342148956186,0.07272169312264881,False
46,8.358000326156617,0.41157700840804834,0.16845703125,-0.887939453125,0.223434448242188,0.0839415059787526,0.185369593991074,0.118252075566679,-0.205307006835938,-1.04747009277344,-0.302703857421875,-0.0651491760627174,-0.223610723031849,-0.170219403181832,0.04452209472656245,-0.9713973999023431,0.1094696044921875,0.02184404620915694,0.01878737643640766,-0.029465587143189358,0.11206023424668717,0.05431057696977344,0.15428897878371467,0.05366606173390668,0.11582554052314972,0.08464788950933452,False
47,6.216999959945676,1.0720908912029565,0.278366088867188,-0.898147583007812,0.12384033203125,0.0409618144103998,0.141900946046583,0.0761192692249718,-0.0870513916015625,-1.06632995605469,-0.04779052734375,-0.105473163392043,-0.0841492325437787,-0.095954493023882,0.07033691406250005,-0.9833557128906245,0.0724395751953125,-0.01412002683637829,0.028172249591403204,-0.01109265183561983,0.10204089627412243,0.05536389088190166,0.058584960172241705,0.04728868199142205,0.07910860146641457,0.05943962236187998,False
48,3.1329999148845675,1.0451374078915974,0.0470428466796875,-0.968307495117188,0.13519287109375,0.0021374530908976,0.0235918788325759,0.0318157202787406,0.008209228515625,-1.03561401367188,-0.0117340087890625,-0.0460844047671672,-0.0124625286371348,-0.01102495428071,0.0323455810546875,-1.0018280029296887,0.0632186889648438,-0.01624264612000416,0.001063746434210347,0.0046289201854994265,0.011647290889241796,0.023409625758908065,0.05363956991319311,0.014090866053529277,0.01009237885599729,0.01178854580719531,False
49,0.39899999052286134,0.26768346780191493,0.055755615234375,-0.943267822265625,0.27276611328125,0.0029771477825995,0.0022162826591639,0.0192309525475712,0.028411865234375,-0.986785888671875,0.116378784179688,-0.0159416822852143,-0.0297570967561094,-0.0054421696875769,0.04564208984375,-0.9599822998046875,0.2040771484375,-0.01028720539553628,-0.00557053405211874,0.0016149941482458598,0.008564565573978345,0.016329352491398247,0.05152278556375927,0.005927440068095426,0.00905977030748471,0.00779386750752742,False
50,0.15999999940395332,0.059628480288527984,0.0579376220703125,-0.948226928710938,0.234817504882812,-0.0106726180684925,0.0022295984646143,0.0020034960880666,0.045745849609375,-0.95855712890625,0.224029541015625,-0.0158671137746921,-0.0073553846146898,-0.0065654910353723,0.04996795654296875,-0.9536590576171875,0.23053436279296863,-0.013018090672136209,-0.0042766372365037,-0.00044211137256405016,0.003771202848329025,0.002785600964087149,0.0028569231964914303,0.0015469168665007305,0.0025333720374688925,0.002425925370166287,False
51,0.0,0.0,0.0518646240234375,-0.951385498046875,0.236251831054688,-0.0128087395788451,-0.0031076426760134,0.0009456885030871,0.0475311279296875,-0.954879760742188,0.228713989257812,-0.0138961082519245,-0.0084265080051197,-0.0011757856212699,0.04962310791015625,-0.9532577514648436,0.231793212890625,-0.01335029338651271,-0.00480623345087687,0.00019558255045542,0.0014129094881671096,0.0012054776000677942,0.002172409565102692,0.0005610788961090697,0.0014365420201559948,0.0007161247841245682,False
52,0.11100000292062742,0.09596874701755508,0.052215576171875,-0.951507568359375,0.23480224609375,-0.0117373498723062,-0.0041574607777227,0.0009456885030871,0.048095703125,-0.955108642578125,0.228897094726562,-0.0149528505724679,-0.0062919843914212,-0.0012082761865689,0.0500030517578125,-0.9531692504882813,0.23144531249999992,-0.013557380792877272,-0.00480495513355363,-0.00023302659538192,0.0012816777290694417,0.001237111544636337,0.0019252698114732372,0.0010128867751977707,0.0007439883692423531,0.0007837209552555334,False
53,0.0839999973773956,0.10844353030803994,0.05316162109375,-0.950851440429688,0.235855102539062,-0.0128153974815703,-0.003093794238345,0.000943025341997,0.0466156005859375,-0.95587158203125,0.228515625,-0.0149541821530129,-0.006285060172587,-0.0022634206104583,0.05012969970703125,-0.9535247802734375,0.2317855834960938,-0.01419528776878396,-0.0044816740088289,-0.00013377058155467008,0.002065724847023244,0.001636272236995266,0.0022991602337333926,0.0007178567851900436,0.0011260054293290543,0.0010064075936301244,False
54,0.0,0.0,0.0540924072265625,-0.951202392578125,0.236068725585938,-0.0106952549377582,-0.0030871363356198,0.0009592706246465,0.04766845703125,-0.957305908203125,0.226898193359375,-0.0170676667940998,-0.0063127570479238,-0.0001640507231488,0.05031890869140625,-0.9546646118164063,0.23231048583984398,-0.01377472136943866,-0.00480349039495408,8.460862783183268e-05,0.0018597654875163433,0.0018231177502942414,0.002427933393480877,0.0019658437216450416,0.001036693019983702,0.0004557338482222883,False
55,0.0,0.0,0.0530242919921875,-0.951507568359375,0.239532470703125,-0.0117506656777566,-0.0031009847732882,0.0009539443024663,0.0464019775390625,-0.958328247070312,0.226791381835938,-0.0170610088913746,-0.0052283178520435,-0.0022743395709276,0.0498779296875,-0.9536178588867186,0.2330123901367188,-0.014087349849803041,-0.00448239306232322,-0.00023928502394362003,0.0025305863263902877,0.0020913269992590424,0.0031419938507605155,0.0013995841953948678,0.0008706623245474026,0.0010661358376636914,False
56,0.0200000002980232,0.06324555414579969,0.0649871826171875,-0.927413940429688,0.279693603515625,-0.0009448895547601,0.0042599924796907,0.0030205573083678,0.0382537841796875,-0.9873046875,0.121917724609375,-0.0298511063425892,-0.0073828151739176,-0.0064179519109819,0.05090789794921875,-0.9511932373046873,0.2336364746093751,-0.0142943040981131,-0.0030981618225327497,7.488808985299999e-05,0.0071833451284904915,0.016539664283122934,0.044630454825132636,0.007234958820432396,0.003460434726388305,0.0028039568189821406,False
57,0.0800000011920928,0.10327955743784963,0.084991455078125,-0.936599731445312,0.244216918945312,-0.0095772599121429,0.0085753787100551,0.0073308835326611,0.0417022705078125,-0.971298217773438,0.205352783203125,-0.0204402939985762,-0.0200770388258894,-0.0129232555057185,0.05593719482421875,-0.954307556152344,0.22676086425781242,-0.01324808126387548,-0.005764279021421979,-1.4141385388310004e-05,0.012914280126972216,0.01024834984394385,0.011559638042917007,0.003255616748150402,0.007220030347533952,0.005652309059086612,False
58,0.17000000476837202,0.5375872173075408,0.0930328369140625,-0.861221313476562,0.467575073242188,0.0051731904174789,0.0138239365863833,0.0179768699902529,0.049346923828125,-0.955108642578125,0.207992553710938,-0.0206626679495978,-0.0243282428739828,-0.0235399471913194,0.066912841796875,-0.9108871459960939,0.3738296508789064,-0.00669982088075593,-0.002403289830909308,-0.00198157827229526,0.014466928643426986,0.02948869712791411,0.09017174996515247,0.008612921201146843,0.011882159602957845,0.011720200494772659,False
59,3.016000008583072,1.3314169198900838,0.163299560546875,-0.861236572265625,0.495742797851562,0.065537997581869,0.0415311982514587,0.0787352923637566,-0.053131103515625,-0.93377685546875,0.35614013671875,-0.0401333049952761,-0.0954610092738903,-0.0501348064690687,0.0573883056640625,-0.8900100708007814,0.44998474121093734,0.0023572970388836415,-0.01735190597724398,0.012756861200810363,0.0671196045435461,0.023391534016954856,0.04276882535782946,0.032862846520779546,0.04323153202245916,0.046240196838247954,False
60,6.8599999904632565,1.0124229386128398,0.236740112304688,-0.85845947265625,0.439132690429688,0.111150490203874,0.11324266955624,0.127001092379808,-0.0709381103515625,-1.05607604980469,0.286727905273438,-0.0762486988539497,-0.102682969517967,-0.0728427821358473,0.07509918212890634,-0.9318984985351559,0.3659271240234377,0.00781573864072095,-0.01589715423178823,0.019312898014312962,0.08911129388271483,0.06701537339398156,0.052892183512206974,0.059601215883625595,0.08376651658361066,0.06844162706202132,False
61,9.607999897003173,0.7463507144342825,0.31915283203125,-0.657470703125,0.696853637695312,0.130491697620575,0.321071766284389,0.149746618617956,-0.718246459960938,-1.3377685546875,0.1109619140625,-0.163518357246974,-0.285907387250983,-0.303331917631153,-0.033537292480468654,-1.018701171875,0.3727676391601563,0.02865888901739343,0.05490892219719916,-0.03300753812977295,0.3189966289182774,0.23135272097407836,0.15237012982711234,0.09152026644590289,0.21030936718048063,0.16611054702688197,True
62,11.501999759674089,0.5442591529131335,0.420166015625,-0.819839477539062,0.654144287109375,0.0927733471017823,0.625359226114663,0.130281307894458,-0.374649047851562,-1.28535461425781,0.191070556640625,-0.49078117411747,-0.175496190565715,-0.678353468646149,0.0233352661132813,-0.962501525878906,0.3212036132812501,-0.05636878721194795,0.03673702892031991,-0.05504884468087199,0.19452425724277506,0.13403026221090159,0.12282991544563551,0.16100759255905467,0.22835272060871323,0.22727000848263298,True
63,12.922000312805158,0.3323249669529441,0.396453857421875,-0.73895263671875,0.40283203125,0.298368850623682,0.157928115802789,0.309706726332476,0.0084991455078125,-1.19117736816406,0.18157958984375,-0.483358145211093,-0.312201309325553,-0.0406249245325047,0.12346954345703129,-0.9777511596679689,0.2872940063476561,0.0043255595057284935,-0.05437850040288818,0.03536968212184048,0.12858167479968113,0.1313121296277488,0.07690265843834336,0.22786590331047596,0.14010191575861192,0.09927970455621699,False
64,13.784999656677249,0.26251993981580096,0.306503295898438,-0.719070434570312,0.615524291992188,0.244703225181386,0.215827368429984,0.0251839165322253,-0.114730834960938,-1.25689697265625,0.114852905273438,-0.128759311331478,-0.0281845001324176,-0.17910530647499,0.05806884765624996,-0.9937133789062502,0.2783355712890624,0.05123064399441453,0.06412119588194684,-0.04314249060578938,0.12431604185214956,0.15929479035673444,0.14291837072578747,0.11804042433838136,0.07352241903311454,0.06628203318807668,False
65,13.75199975967406,0.22473666886576918,0.15728759765625,-0.730255126953125,0.339736938476562,0.38679165776871,0.205310278969152,0.322838773667657,-0.1331787109375,-1.07302856445312,-0.01654052734375,-0.258647270332932,-0.27514901539539,-0.131727138050262,0.0404922485351562,-0.9572311401367184,0.17245178222656254,-0.007489288354299142,-0.027924149504251393,0.018334266208541623,0.08421936263387174,0.11248825878309687,0.10923998329180556,0.1828185346981993,0.13277791268957975,0.12688840294154807,True
66,13.099000167846679,0.19151160897050037,0.176620483398438,-0.799072265625,0.2384033203125,0.131364948142012,0.243606535444491,0.0496269416491906,-0.093902587890625,-1.15568542480469,0.07275390625,-0.0910215197367282,-0.12705941560768,-0.142494564653562,0.05366363525390625,-0.9810119628906253,0.16080169677734363,0.0035987029494132204,0.025820012558590733,-0.030843373533141823,0.08135950729611484,0.09822745091523269,0.05026370344652422,0.0693485074339503,0.11909975397137568,0.060850949823270356,False
67,12.188999748230009,0.5651047644696298,0.185455322265625,-0.65087890625,0.241439819335938,0.0691950503907658,0.255109260824761,0.0555796393177357,-0.237228393554688,-1.23635864257812,-0.022216796875,-0.0736289472896387,-0.0601565479671459,-0.101685882005841,0.0031188964843749,-0.9982070922851577,0.0849273681640625,0.01870330044079379,0.047316090139717826,-0.025626374115731043,0.13067757300337984,0.16461315668390475,0.07948682959899461,0.04406568804254529,0.11094422918658405,0.055998347435819544,False
68,9.577999830245961,1.3380065984780352,0.411849975585938,-0.75604248046875,0.168731689453125,0.108285195187058,0.315653565046623,0.144630952480023,0.0201873779296875,-1.18937683105469,-0.0762176513671875,-0.0989630661073445,-0.132101045867309,-0.135831601922292,0.22953186035156245,-1.0229095458984383,0.07042541503906266,0.0009743707480272985,0.11210680471971068,-0.017658622239988448,0.10953967346402728,0.12089528574590368,0.09637379049104165,0.06392063668656767,0.1572716680725202,0.09927562249191181,False
69,6.93100004196167,0.12810145404597673,0.572113037109375,-0.838699340820312,0.262344360351562,0.0338626258925755,0.575742937109832,0.0180405195403058,0.09686279296875,-1.05772399902344,0.1292724609375,-0.142892707236529,0.276335986293238,-0.245071007727926,0.2580459594726562,-0.9273086547851564,0.2063186645507813,-0.04617375382173937,0.35173851897403685,-0.09083581751391695,0.1359811586382486,0.06648414360267792,0.044227365496040234,0.05562682126633231,0.0888852992555542,0.07009978191461855,False
70,6.642000007629394,0.19019285749505319,0.384475708007812,-0.824661254882812,0.416305541992188,0.122984246507641,0.450019629421045,0.0641970959730141,-0.065216064453125,-1.00604248046875,0.133865356445312,-0.179006236882439,-0.0461826754113911,-0.213038239820344,0.18061676025390622,-0.9257171630859373,0.2970870971679687,-0.05445799576142703,0.22031993476767098,-0.07096314967008034,0.14207512575204873,0.057854820060726335,0.08948155647535301,0.08688354715735021,0.17618925482389003,0.0843109220598393,False
71,8.072000217437745,0.8623072599488684,0.208770751953125,-0.845657348632812,0.40447998046875,0.103772468719919,0.149977248368357,0.0792133297794259,-0.108917236328125,-0.981124877929688,0.222946166992188,-0.0519340381015262,-0.133995352350683,-0.165680844052119,0.05759124755859375,-0.9056549072265627,0.338519287109375,0.0169712869942499,-0.02904281032013923,0.00462018501712392,0.08522025693933127,0.04941725569800071,0.05359711087599974,0.04934165086741271,0.08434596432565095,0.07141193205434376,False
72,10.072000312805178,0.5864922368803613,0.133392333984375,-0.827178955078125,0.418426513671875,0.0787997408621366,0.192000066157045,-0.0126798425820853,-0.04852294921875,-1.02655029296875,0.278518676757812,-0.140788277343148,-0.130994236118273,-0.127634392087029,0.0236602783203125,-0.9648345947265625,0.3266296386718749,-0.023245854312141927,-0.003472841956295947,-0.04618286183266745,0.06244027376796903,0.05573739098087207,0.049240560194317315,0.06546478285730203,0.10791479552171991,0.03517786548341149,False
73,11.77499971389769,0.6354569821101799,0.552108764648438,-0.735366821289062,0.5048828125,0.664053092540751,0.200884371553549,0.518890573107148,-0.681182861328125,-1.08480834960938,0.212188720703125,-0.162393171686416,-0.542146094694047,-0.289823033001726,0.017285156250000107,-0.9117599487304681,0.3291748046875,0.08822583975080668,-0.16000261176551717,0.14184320871415018,0.3440100626392598,0.1270343330153232,0.09029551211753271,0.22910653991249114,0.2967643670669848,0.24597983620479363,True
74,13.41200008392332,0.14061773551365575,0.3135986328125,-0.698532104492188,0.2454833984375,0.159059160317746,0.191066894511081,0.203881226728215,-0.132354736328125,-1.07177734375,0.121978759765625,-0.180068039209054,-0.286078628509075,-0.20701257153793,0.0736709594726563,-0.9187545776367182,0.20149383544921862,0.0002087918294623306,-0.010203954979860458,0.05675105735481789,0.13157126708494793,0.10084804014953845,0.04810894809568903,0.1089479336440254,0.15660860531466073,0.1338640950584122,False
75,13.686999988555911,0.33499764377415975,0.67034912109375,-0.731918334960938,0.624664306640625,0.686620453301973,0.690257532402694,0.173362465900343,-0.841278076171875,-1.08976745605469,0.260665893554688,-0.165490694350287,-0.232902758391245,-0.678389155004756,-0.03836212158203125,-0.8938919067382816,0.4112518310546875,0.043878721489141716,0.03395557021461926,-0.06702310936375167,0.3664967170987658,0.10705465720822215,0.09475873283982902,0.2565079153803029,0.2919712529756355,0.24262173726632552,True
76,15.427000331878679,0.7250447548860629,0.864776611328125,-0.592529296875,0.468582153320312,0.328928357816232,0.386001231557175,0.547641527603425,-0.789382934570312,-1.28713989257812,-0.061859130859375,-0.318041621596097,-0.602771625329156,-0.437135256067241,0.20530700683593744,-0.9604751586914061,0.2863082885742187,-0.02458798097509833,-0.037173760707482115,0.017649966966445677,0.4312860428118461,0.18830233374551478,0.1619944647524377,0.18148819117569298,0.29842568961828525,0.2925179090522039,True
77,16.7980001449585,0.13942758213228276,0.578216552734375,-0.469085693359375,0.685028076171875,0.272357489940769,0.792849155495272,0.253707372826944,-0.49957275390625,-1.81719970703125,0.003082275390625,-0.558430259495445,-0.138950696190993,-0.391600527749066,0.01595458984374985,-1.045060729980468,0.24954833984375005,-0.0581144094116622,0.23373821865681346,-0.1230664582904919,0.3048030020300155,0.361255067983804,0.23157581118948958,0.25559245339498754,0.2863408018038881,0.18248687101301803,True
78,15.11000032424928,1.6310870474813923,0.174224853515625,-0.938858032226562,0.118270874023438,0.189074583699593,0.0537247476184955,0.221126792683132,-0.234329223632812,-1.2772216796875,-0.0985260009765625,-0.11297422291836,-0.285224819063595,-0.115032047492665,-0.00853576660156245,-1.0743286132812513,-0.0111953735351562,-0.0009630256817834883,-0.03998430113228614,0.03282609696470573,0.1345599830002192,0.11042049781057846,0.06629148280683128,0.08493460603951172,0.09853656183863349,0.08800662924912799,True
79,9.116999959945682,2.1774504900108256,0.189056396484375,-0.86907958984375,0.4810791015625,0.14049506330713,0.0426784880490648,0.166669942080974,-0.150222778320312,-1.16505432128906,-0.136428833007812,-0.0616529781836614,-0.233850577423204,-0.0981555956648325,0.035203552246093756,-1.0215698242187512,0.17985839843750018,0.021190213529931556,-0.020877185575403693,0.019782546472548436,0.11518432439243653,0.09198037681615152,0.24410743898969947,0.05757622765232144,0.08534556763542449,0.08622177446735978,False
80,7.397999763488768,1.0224673670106157,0.482467651367188,-0.68536376953125,0.745391845703125,0.166725868463866,0.631806739113744,0.332467432588838,-0.504135131835938,-1.14390563964844,0.41259765625,-0.170779465959075,-0.355853981701369,-0.557810275593675,0.1486602783203125,-0.9207031250000002,0.5379928588867188,0.001840483997742877,0.07592642973043909,-0.0693743876585718,0.27404244411677714,0.13490410610463135,0.10658496855059536,0.10666683124420165,0.28726872657274793,0.27693600183503303,True
81,12.12999973297117,1.4869432526196917,0.46038818359375,-0.745208740234375,0.643341064453125,0.0842400463369504,0.286558530137507,0.161095146971111,-0.191055297851562,-1.206298828125,0.34228515625,-0.14160373726893,-0.130139894040575,-0.211495204284752,0.06952667236328135,-0.8971511840820318,0.48968353271484377,-0.02587109198829844,-0.001212244296593168,0.014345383527820787,0.18592049661222626,0.15123741644979413,0.08059804450902625,0.06682832165060867,0.11998443855744731,0.09807062158884947,False
82,16.060999488830568,1.0029556957048782,0.831527709960938,-0.503280639648438,0.588546752929688,0.18310777127727,0.475984384784881,0.233827940553938,-0.393630981445312,-1.27789306640625,-0.146743774414062,-0.2500252863038,-0.299842111338713,-0.378029325150132,0.2954620361328126,-0.9224212646484375,0.26009979248046894,-0.0006775614445378747,0.014362587548462775,-0.012625327674571427,0.4260477774396726,0.2156084984705488,0.20162596494181606,0.1749885477231085,0.2703476917070338,0.19863349672092726,True
83,17.593999862670877,0.3101328721866455,0.227554321289062,-0.763961791992188,0.397750854492188,0.215721374618598,0.198163153551706,0.167408436651253,-0.3033447265625,-1.13929748535156,0.17138671875,-0.0932029149856121,-0.266152058284775,-0.25196619810625,0.02207336425781235,-0.9771942138671876,0.2937973022460939,0.028322984509101666,-0.00029182919225094196,-0.0075992502757084995,0.17106469683421607,0.10748677850593201,0.07511159647653662,0.0863464174729652,0.1487902298449516,0.13895406005685676,False
84,18.58300037384031,0.1918360116946966,0.143157958984375,-0.64422607421875,0.364288330078125,0.169556276070402,0.42649992225401,0.304523149586746,-0.41937255859375,-1.06881713867188,0.202651977539062,-0.163060027223372,-0.406331004370513,-0.301310045731565,-0.131658935546875,-0.9490875244140629,0.3037628173828125,0.007750784141733846,0.003355290025779869,0.01126594372775141,0.1725954062095386,0.12245851802818827,0.05281552754075379,0.10174011745964602,0.24561049273478477,0.18048185005823825,False
85,19.07699985504149,0.024967215855931705,0.3194580078125,-0.879562377929688,0.319427490234375,0.12282605473889,0.187988812923167,0.142950764148292,-0.093780517578125,-1.38021850585938,0.154510498046875,-0.122386633159027,-0.0644216004529078,-0.175461036839326,0.08403930664062505,-0.9815521240234382,0.2466217041015625,0.0019543341343437604,0.06369674126741001,-0.04556508835460183,0.13898687676494015,0.1484003733402457,0.05361287055662164,0.08056093277376097,0.07907099341311519,0.10955786861107439,False
86,18.86000061035156,0.28126738468685114,0.296981811523438,-0.862579345703125,0.348785400390625,0.0563407707572803,0.127104423030103,0.180784695858394,-0.00079345703125,-1.12811279296875,-0.0358734130859375,-0.146947902628392,-0.281444195580119,-0.125330491428001,0.12249908447265626,-0.9936569213867186,0.1430984497070312,-0.04069760219865297,-0.014416889403089389,-0.014346874898031253,0.10066249100090423,0.06934862142086007,0.12019407656308674,0.06239964728109404,0.1334136152200089,0.09817848592437713,False
87,18.05499973297119,0.15572390952606238,0.402267456054688,-0.753494262695312,0.517913818359375,0.375671362320976,0.233602637125717,0.180467247056457,-0.0774688720703125,-1.24484252929688,0.182632446289062,-0.1619196616446,-0.225286117673618,-0.21598662546317,0.0683731079101563,-0.9364364624023441,0.2947753906249999,0.014264583220347887,-0.027003441452189254,0.0089586874857503,0.14168580177609752,0.13442908528418032,0.09142751259628944,0.1538829419195487,0.13406670678017515,0.1262646045362698,False
88,18.16200065612792,0.036147686972497595,0.606979370117188,-0.792800903320312,0.361175537109375,0.111645039218302,0.636966081093555,0.362656760389867,-0.479812622070312,-1.15992736816406,0.0232086181640625,-0.250924103171702,-0.348747602648601,-0.404329638811318,0.08240814208984393,-0.9731033325195311,0.20473480224609375,-0.06748173233507426,0.04765566981031409,-0.07736805209172093,0.3759240347738874,0.13220902388166766,0.1171354198516767,0.12605712449947626,0.3450495387624322,0.26953999841803966,True
89,17.55800037384033,0.383545066717818,0.345718383789062,-0.603302001953125,0.179794311523438,0.154453489528563,0.288121805697384,0.350145495904784,-0.0460357666015625,-1.25148010253906,-0.372970581054688,-0.167370886079883,-0.320932216643269,-0.388863064464574,0.13181915283203122,-0.9789855957031246,0.0293228149414063,-0.04638664691928031,0.06730646970373617,-0.05961025373273787,0.13188930782234437,0.1840692551122947,0.1653837170460527,0.10680086998298008,0.23620624409657492,0.2666989027602785,True
90,14.73300018310545,1.9885789841467676,0.439453125,-0.869430541992188,-0.0190582275390625,0.284902043939478,0.349148142076549,0.310192486915306,-0.364364624023438,-1.28852844238281,-0.243316650390625,-0.209506089266572,-0.184010050254589,-0.201004746434821,-0.05925598144531234,-1.072196960449218,-0.1439392089843751,0.015124704357610591,0.030106370333073267,-0.03030994236679898,0.23650488548381668,0.12019002980312311,0.0661517568780659,0.15785972004452337,0.15806936808049593,0.15324888046884327,True
91,7.922999835014347,2.4457765607151054,0.0677032470703125,-0.966339111328125,0.13916015625,0.194718620997798,0.0235575240545139,0.200883572605222,-0.1790771484375,-1.1787109375,-0.283096313476562,-0.0766039645433662,-0.255985440823397,-0.0677875697546589,-0.0289352416992187,-1.0402450561523455,-0.0857742309570313,0.015479330888365677,-0.04860101210245933,0.032803433463829176,0.08702006556577045,0.06794210924072927,0.12444844769044007,0.08126060750944299,0.10209466803549967,0.09415776674259572,False
92,1.0679999575018901,1.3291500506708815,0.05133056640625,-0.939849853515625,0.276046752929688,-0.005346295888334,6.76442916880127e-05,0.0020034960880666,0.028076171875,-0.957046508789062,0.218612670898438,-0.0160269034400969,-0.0084400901266791,-0.0065303373089833,0.03928985595703125,-0.9463638305664063,0.2530578613281252,-0.01172669722794591,-0.004604339208637969,-0.0016008793944684054,0.007639920750949971,0.005460716062748685,0.019491779923663792,0.0031807805262136723,0.0030531887720182775,0.0029843501205192545,False
93,0.3709999918937683,0.11376876949144422,0.0435028076171875,-0.944198608398438,0.263107299804688,-0.0128087395788451,-0.0030874026517288,0.0009265137432385,0.0383148193359375,-0.947769165039062,0.258132934570312,-0.0160109244735564,-0.0062989086102554,-0.0012218583081283,0.04046478271484375,-0.9460983276367185,0.2608261108398437,-0.01440623675872913,-0.0047994690217080605,-0.00045497444062910007,0.0015627571066615953,0.0012691678643803037,0.0014255199236434654,0.0012505460861924563,0.0008996339843541675,0.0007235824223096989,False
94,0.5679999992251396,0.15171610705920502,0.0426025390625,-0.943557739257812,0.262054443359375,-0.0128020816761199,-0.0041502702427794,0.0019789950060378,0.03546142578125,-0.9500732421875,0.257095336914062,-0.016032229762277,-0.0062986422941464,-0.0022716764098375,0.0402496337890625,-0.9468032836914062,0.2604888916015624,-0.014302160423328828,-0.00511926140540476,-0.00045308359625517003,0.0020899998773899783,0.002059277715629932,0.001589979162341301,0.0012551408183563552,0.0006073717366338519,0.001329302766229676,False
95,0.09200000166892999,0.1187714914382735,0.0423431396484375,-0.938446044921875,0.263534545898438,-0.0117440077750314,-0.0020378508661286,0.0020034960880666,0.037750244140625,-0.950698852539062,0.255874633789062,-0.0170596773108296,-0.006285060172587,-0.0033212281954378,0.04033355712890625,-0.9459304809570312,0.26099853515624993,-0.013973419818369448,-0.0042704587027747095,-0.0006651511138581601,0.0017067129692910179,0.003584890043284483,0.0026222416328269566,0.0016253801515097035,0.0013685310703126325,0.0016084864032683036,False
96,0.0,0.0,0.0440521240234375,-0.944244384765625,0.263824462890625,-0.0106499811992269,-0.0041574607777227,0.0009592706246465,0.0359649658203125,-0.9522705078125,0.259719848632812,-0.0159962770875609,-0.0062919843914212,-0.0022306637290503,0.04063262939453125,-0.9471649169921875,0.26103820800781224,-0.01366771555683927,-0.0051233360418726,-0.00012671320466598002,0.003329039384007553,0.0020321412657981408,0.0013133436322454457,0.0016531864060392164,0.0007840415782959595,0.0012282007393575258,False
97,0.0,0.0,0.0433807373046875,-0.94366455078125,0.262496948242188,-0.0117519972583017,-0.0041643849965569,0.0009400958647979,0.0375518798828125,-0.9476318359375,0.257034301757812,-0.0139040977351947,-0.0062991749263644,-0.0022498384888989,0.0399993896484375,-0.9458770751953125,0.2601867675781249,-0.013237295461460663,-0.00491342568475256,-0.00033609092956798003,0.0019119776185840922,0.0013188631955297588,0.0018563703387736543,0.0007488089261634122,0.0008774394692570793,0.0009754619632007494,False
98,0.0,0.0,0.044342041015625,-0.9442138671875,0.265090942382812,-0.0128087395788451,-0.0041577270938317,0.0009374327037078,0.03643798828125,-0.9493408203125,0.256698608398438,-0.0160255718595518,-0.0073487267119646,-0.0001422128022102,0.0405548095703125,-0.9467819213867188,0.2614837646484375,-0.014416756245034959,-0.00522480247940462,7.912251598628e-05,0.002846851885301977,0.0015769228267018178,0.0024982116846339695,0.0010373639528978458,0.0010020408767753312,0.0004467309901687403,False
99,0.0,0.0,0.0435333251953125,-0.942977905273438,0.26434326171875,-0.0117147130030406,-0.0041646513126659,-0.0001177117201815,0.037933349609375,-0.950897216796875,0.257339477539062,-0.0139054293157397,-0.0084193174701765,-0.0022415826895196,0.040911865234375,-0.9467544555664065,0.2600555419921872,-0.01313108859718828,-0.00533963798560884,-0.00054714644595674,0.0020520509089572425,0.002851278027406244,0.002050893265828921,0.0007286748573095155,0.001367585050002372,0.0007400322795579417,False
100,0.0,0.0,0.0411224365234375,-0.94317626953125,0.26422119140625,-0.0117440077750314,-0.003094060554454,0.0009536779863573,0.03863525390625,-0.951431274414062,0.257125854492188,-0.0149461926697427,-0.007362308833524,-0.0012056130254788,0.039984130859375,-0.9468093872070312,0.2616134643554688,-0.01356204132478491,-0.005230395117693781,-0.00012535499251001002,0.0009113981590389271,0.0028619932436691723,0.0025956037925093114,0.0012324816440690385,0.0012288572761050606,0.0007135348184022531,False
101,0.0,0.0,0.04168701171875,-0.94390869140625,0.263671875,-0.0117506656777566,-0.0030874026517288,0.0009539443024663,0.0389862060546875,-0.951217651367188,0.2607421875,-0.0160109244735564,-0.0052421662897119,-0.0022634206104583,0.0404388427734375,-0.9480209350585938,0.26196594238281234,-0.01376846294087696,-0.00416531710293839,-2.3595607258100033e-05,0.0009930803181747944,0.0020375197647312113,0.0010538216557165621,0.0015369135392326837,0.000869478644561276,0.0011787084475674689,False
102,0.0,0.0,0.043670654296875,-0.945220947265625,0.263320922851562,-0.010687265454488,-0.0041571944616136,0.0019899139665072,0.0374298095703125,-0.94891357421875,0.259521484375,-0.0149674979584633,-0.0073700320006852,-0.002252501649989,0.040789794921875,-0.9465576171875,0.2611221313476562,-0.01292480013915075,-0.00544728295686982,-0.00011827098401039527,0.0017913006733999057,0.0011792278966406237,0.0010635630165051937,0.001551576711707882,0.001103406393015903,0.001496799861866728,False
103,0.0,0.0,0.0453948974609375,-0.943801879882812,0.263671875,-0.0117373498723062,-0.0041569281455046,0.0030559773508659,0.035369873046875,-0.94854736328125,0.25811767578125,-0.0170543509886494,-0.0062717443671366,-0.0022908511696861,0.04122161865234375,-0.946234130859375,0.2605789184570312,-0.014191958817421349,-0.005013640436572221,-0.00066547069318899,0.002649950355719801,0.0015073061297571438,0.001639214273730614,0.001512911041644767,0.0006685889292708922,0.0016845266944606166,False
104,0.0,0.0,0.050048828125,-0.943023681640625,0.264602661132812,-0.012771455323584,-0.003094593186672,0.0041438786561632,0.0312347412109375,-0.9501953125,0.2586669921875,-0.0159589928322998,-0.0052357747030957,-0.0033513219157557,0.04096527099609375,-0.9476242065429688,0.26199951171875,-0.01366065817995055,-0.00437879609591912,-0.00023518375586490002,0.004997030419833279,0.002191904969829179,0.0019935841329265323,0.0011983580301113364,0.0008415167034469775,0.0025387180650560458,False
105,0.0,0.0,0.04510498046875,-0.943267822265625,0.269134521484375,-0.011729360389036,-0.0041577270938317,0.0020253340090052,0.035858154296875,-0.952774047851562,0.254730224609375,-0.0159962770875609,-0.0052416336574939,-0.0022743395709276,0.04138336181640625,-0.9477905273437498,0.2617385864257813,-0.013771658734185049,-0.0045907837186894606,-2.2530342822059975e-05,0.0029230877927072384,0.0028173324636289855,0.004106526990761833,0.0015355876759023284,0.0005485615453833807,0.0014678035384550335,False
106,0.420000001788139,0.7661592367898492,0.129379272460938,-0.805023193359375,0.615707397460938,0.0254502326412332,0.0615243475030106,0.0456878600808544,0.0283050537109375,-0.943023681640625,0.262786865234375,-0.0464119735812469,-0.0443709269218102,-0.0827004729107756,0.06836090087890634,-0.8694290161132813,0.49766387939453144,-0.01533176513236439,0.008607709485688697,-0.01105456863203171,0.03059806843572858,0.04660093938176083,0.11000024816021564,0.02236109648607446,0.03007788005077871,0.03432901713301601,False
107,4.56499991416931,1.9099811391415273,0.3638916015625,-0.6785888671875,0.607223510742188,0.0473965442362492,0.193684781862629,0.127675671083925,-0.134109497070312,-0.97418212890625,0.3758544921875,-0.133269374637527,-0.123000491790291,-0.140014362730371,0.1117828369140627,-0.8523895263671873,0.5217987060546876,-0.0210061890986071,0.04225645691111994,-0.021541777425432927,0.14414337179133446,0.08111518105098917,0.07537490218762737,0.0528717388202695,0.10935225007914892,0.07608384577067437,False
108,9.100000381469716,1.0540925533894439,0.307952880859375,-0.815216064453125,0.420394897460938,0.0286177964417735,0.297497197998899,0.093502786924355,-0.120269775390625,-1.07127380371094,0.175827026367188,-0.162981197655105,-0.211113040668325,-0.167205770092298,0.11126098632812491,-0.9267517089843752,0.27900085449218764,-0.06793052824197435,-0.0342360010774045,-0.0040190296642603875,0.15891296719847284,0.10006635615885799,0.07567821510918733,0.0674630848818931,0.14034627770015382,0.07364176603650431,False
109,11.668000125885019,0.4796708391056569,0.272567749023438,-0.544906616210938,0.493606567382812,0.163976953586686,0.224041089864006,0.17557794961118,-0.323333740234375,-1.13984680175781,0.073822021484375,-0.126834911127787,-0.288223804767134,-0.125265776613512,0.0135848999023437,-0.8752838134765621,0.2563842773437498,-0.021145658844894614,-0.034534541435602556,0.032072289218158835,0.16947306022339698,0.17698142903917347,0.13187825053737784,0.0842365674881135,0.13760023116826797,0.10723314605503356,False
110,13.07099971771242,0.36278106225558654,0.499237060546875,-0.734039306640625,0.336318969726562,0.121620441713412,0.379306577208934,0.181080040423284,-0.152618408203125,-1.05426025390625,0.110488891601562,-0.107411412033403,-0.247976250161093,-0.206724151191875,0.1072647094726562,-0.9175201416015613,0.2372451782226564,-0.037390595283436204,0.041938582003408165,-0.015098179273153451,0.185851558864912,0.10305693910935522,0.07636667386172517,0.07231624045323595,0.17763640301738493,0.11413233432274707,False
111,14.12099981307984,0.414419090230715,0.493881225585938,-0.749893188476562,0.44232177734375,0.160340939750401,0.184093673512817,0.211248062935592,-0.230072021484375,-1.16749572753906,0.1463623046875,-0.177755350118429,-0.24353702694004,-0.185559211060688,0.07862243652343755,-0.9524169921874994,0.2357757568359374,-0.006219439883327439,0.035673681960272936,-0.008472207849425551,0.26395570331318663,0.10892445105801248,0.09411165941367523,0.08937605375974322,0.1462580755591802,0.13566781461750074,False
112,14.67600002288816,0.3430320849203693,-0.0032806396484375,-0.858474731445312,0.204299926757812,0.105596734066623,0.0943888206190244,0.0778231596904045,-0.212051391601562,-1.16207885742188,0.032806396484375,-0.0241538058225827,-0.186503301667121,-0.164077354759782,-0.11858215332031241,-0.9895874023437503,0.10190277099609375,0.026597389280784874,-0.03942738088512878,-0.01956414063155102,0.06586137869934237,0.08844788173954149,0.05144437668559156,0.042863644760398334,0.0736883044296437,0.07573106890710297,False
113,13.678999900817871,0.07837943658914938,0.213577270507812,-0.899459838867188,0.233917236328125,0.063589628928367,0.169916069133672,0.281672961117757,-0.257064819335938,-1.06689453125,0.0597076416015625,-0.125101459574254,-0.235450338290014,-0.180843285402376,0.0334487915039061,-0.9691726684570318,0.1480621337890625,-0.0403829497158601,0.0028173581171948734,0.010881143581845767,0.13593117227730384,0.05282426757182332,0.06160787232996635,0.05315236917134838,0.1161687808800551,0.13015531435196,False
114,12.971000003814728,0.539638725723002,0.273361206054688,-0.871231079101562,0.17822265625,0.114941233699493,0.210463495678455,0.0867862946551752,-0.0893402099609375,-1.17222595214844,-0.109634399414062,-0.14073394885691,-0.11282402063288,-0.181269124860679,0.05889434814453141,-0.9806457519531252,0.0178207397460939,-0.039875484370145486,0.05875841502646525,-0.03435887933010081,0.13138079452706825,0.09870944576480635,0.1019942433879808,0.07246084708501203,0.11246999827873491,0.08087107342108933,False
115,10.108000278472895,1.5326071098529441,0.0987396240234375,-0.955078125,-0.00604248046875,0.0194791591611666,0.0355785005829136,0.122406873183312,-0.358856201171875,-1.11647033691406,-0.171173095703125,-0.112332933727869,-0.31487032937003,-0.0830445533236139,-0.12191162109374995,-1.062661743164062,-0.081982421875,-0.032158522374255614,-0.16349529427193413,0.011607787085273871,0.14344447656396234,0.05611273165398683,0.06063756798685761,0.041557481776106735,0.1133598450962267,0.06606284405334448,False
116,5.8510000228881855,1.2040713146503215,-0.006439208984375,-0.858901977539062,0.452255249023438,0.283688974062947,-0.352321298515379,0.335841657689968,-0.472503662109375,-1.40705871582031,0.02410888671875,-0.0291264602099786,-0.736076153693072,0.0610468427195594,-0.2950042724609376,-1.0055084228515623,0.19414825439453126,0.08911147397131253,-0.5473028534075999,0.1766507507930966,0.14734611086073776,0.16067414105883288,0.14307307929207239,0.09728947241563869,0.13345060250068208,0.07599987627799636,False
117,5.938999986648561,1.046140537790353,0.162628173828125,-0.750823974609375,0.660568237304688,0.0982943463576256,0.0882350542881783,0.224873327704656,-0.2335205078125,-0.914306640625,0.392196655273438,-0.155670021514511,-0.39843419910621,-0.0346466605174949,-0.03831481933593755,-0.8428680419921877,0.563346862792969,-0.0213355155990063,-0.14547173906777214,0.07852370421514995,0.12502651814966748,0.054564601788556315,0.08030177471481716,0.081702715708022,0.16140818941052676,0.07927974004961708,False
118,9.567999649047838,1.3255255871057294,0.08251953125,-0.805801391601562,0.600234985351562,0.132665103386188,0.130615001979045,0.0944311648803566,-0.120895385742188,-0.986190795898438,0.454132080078125,-0.0957704685925575,-0.250994943256698,-0.117509586254765,0.0147811889648437,-0.8855026245117189,0.5455581665039061,0.002218732767366792,-0.026612010035169404,-0.028696386325541706,0.0672065503667282,0.05567166165482959,0.05422025757632632,0.06315538378195465,0.11969909653483242,0.08649571220635995,False
119,12.75600013732912,0.7324872450689184,0.187088012695312,-0.61822509765625,0.512161254882812,0.128085531575688,0.111093232240437,0.246409778807909,-0.21337890625,-1.1839599609375,0.244125366210938,-0.108941131763544,-0.363440795014787,-0.107669472343032,0.026477050781249956,-0.8617233276367188,0.4187561035156249,-0.008548214466936247,-0.11141909663141951,0.01896538212366846,0.12139573111938153,0.16140806941258376,0.08194396165943055,0.08431476415915619,0.18086402444577196,0.10664576448223849,False
120,13.76600008010865,0.09359490580021844,0.345809936523438,-0.71343994140625,0.5289306640625,0.180428098588432,0.23618963180862,0.170446570822815,-0.163192749023438,-1.41838073730469,0.0760040283203125,-0.148574028789995,-0.141221041020286,-0.203208245920752,0.0807403564453125,-0.9955352783203131,0.31366271972656257,0.006194699116800538,0.050060051537270014,-0.005076970407294437,0.1719522003590156,0.18435561261487735,0.12299637283727967,0.09248204902709842,0.12516196814651434,0.1291123646793506,False
121,13.763000106811528,0.22686518536461803,0.341842651367188,-0.796142578125,0.416259765625,0.0625334192400416,0.248828728026028,0.226111963927652,-0.167205810546875,-0.97210693359375,0.230621337890625,-0.166675002087045,-0.193967343254286,-0.139156824859365,0.06575012207031258,-0.8903869628906251,0.31112060546875,-0.04767404562183547,0.03913637727281596,0.003249269582784019,0.1460755012471097,0.05701183176488656,0.06659282244452476,0.06608595686422353,0.14153739719177413,0.1186214199334431,False
122,13.372999954223639,0.609226088701638,0.225326538085938,-0.845306396484375,0.251968383789062,0.0490812599418333,0.164848606211469,0.128198982238125,-0.115951538085938,-1.01237487792969,0.112472534179688,-0.164243536011803,-0.246023620449847,-0.202555238821465,0.07031860351562495,-0.9242996215820313,0.1825759887695312,-0.05086397997553242,-0.035835442364884465,0.0008511729160001202,0.1121169788733395,0.06154472011976443,0.04733760212443002,0.07121515523274566,0.1291576267395911,0.11375708588588035,False
123,10.957999610900846,1.39822742813745,0.19342041015625,-0.917877197265625,0.124404907226562,0.0939984012032188,0.159716428474777,0.190262087229659,-0.422164916992188,-1.143310546875,-0.101364135742188,-0.10465530662128,-0.360958196246615,-0.12535232934894,-0.0918243408203127,-0.9915176391601574,-0.0209960937500001,-0.0060192500641862105,-0.08250204077795383,0.021155698962204147,0.19661251976496583,0.07026197811618703,0.07324786764654262,0.062463043999970734,0.1417321176867014,0.1062256349506326,False
124,6.066999936103819,1.6091269976571119,0.129531860351562,-0.94158935546875,0.174530029296875,0.049271409643665,0.0903647842119147,0.0543497915263371,-0.0014190673828125,-1.057861328125,-0.0857391357421875,-0.0302127636186219,-0.0620125049308221,-0.110280968107963,0.05077514648437496,-0.9892028808593751,0.0588958740234376,-0.00019558255045542088,0.01414852266004216,-0.0013179717918693,0.041071164281670416,0.035185914122542725,0.09273958893719192,0.025359778263887175,0.05233662913238871,0.048005433001644025,False
125,1.4369999974966061,0.7370820780601991,0.0751190185546875,-0.917556762695312,0.3707275390625,-0.0041470744494713,0.0578238851683455,0.0297136872303411,-0.0021209716796875,-1.01072692871094,0.07183837890625,-0.0604588167508699,-0.0201723799929142,-0.0636748500832496,0.050054931640625,-0.9659164428710934,0.20238342285156263,-0.01424631393526985,0.0049846918755231005,-0.006769249490374281,0.02735484953804155,0.03397057998222745,0.10676505981319098,0.016571817801291366,0.020194544850510247,0.023632208885975933,False
126,1.1000000238418557,0.808152925835393,0.11102294921875,-0.889862060546875,0.419570922851562,0.0523345775294741,0.0192450673013486,0.209971876141226,-0.290496826171875,-0.969161987304688,0.372573852539062,-0.0278007386193372,-0.590670753968053,-0.0203966181566989,-0.0330032348632813,-0.92073974609375,0.3982406616210936,0.003969734552483019,-0.17244519332608715,0.059020816288670654,0.13703912490680897,0.026893874555684615,0.017547908835655664,0.024960080253252904,0.2088821351365023,0.08307414035055231,False
127,3.8690000534057605,0.9731329524263089,0.112930297851562,-0.822158813476562,0.50067138671875,0.0651531708043525,-0.191485277118332,0.288821684431856,-0.326095581054688,-0.972457885742188,0.321014404296875,-0.0297576293883274,-0.669319759912492,0.0091618067820906,-0.1476684570312501,-0.9066375732421876,0.3865447998046873,0.01269507586352051,-0.5174525193817268,0.1430585689092187,0.15433044648492575,0.05306704166871082,0.05347400541208429,0.03050791186625514,0.16712715418453739,0.08148055049814375,False
128,7.176999950408937,1.2092424413843539,0.184783935546875,-0.791732788085938,0.45831298828125,0.0928817377581485,0.0988671923081016,0.120217488451158,-0.085693359375,-0.9993896484375,0.112442016601562,-0.0667614537866514,-0.234608246753331,-0.0492210758990625,0.08004608154296874,-0.9116409301757813,0.31889038085937493,0.005069060818856821,-0.0650226759109386,0.021970466466103008,0.09258441811164946,0.06118595781305757,0.11506846907874464,0.049400724706156904,0.09102246348133276,0.054531138775828596,False
129,8.61599998474121,0.519384201072495,0.172317504882812,-0.918411254882812,0.161697387695312,0.115806761053769,0.110083361555079,0.0943326279200237,-0.0225372314453125,-1.11344909667969,0.00384521484375,-0.0941624519263677,-0.0662573173922994,-0.0586934072642563,0.0767776489257812,-1.017790222167969,0.07360687255859365,0.0046512108438234,0.00784359530572314,0.014527889957323958,0.0646769705915502,0.04767422808713627,0.04810261741225615,0.06313929589790898,0.0613694605419982,0.0567860724742729,False
130,5.633999943733215,1.507611698392327,0.106735229492188,-0.994583129882812,0.0457000732421875,-0.0073133066694666,0.0598470886484787,0.0071777517699815,-0.007293701171875,-1.05091857910156,-0.028778076171875,-0.0437733135731964,-0.0125613319135767,-0.0368538884289525,0.054454040527343796,-1.0320358276367192,-0.001239013671875,-0.020442557685502738,0.01949058412224302,-0.01294754353486002,0.029349147161157357,0.016396963822373694,0.02482578543431278,0.011164704552657478,0.025159902355935404,0.01333564908381371,False
131,1.7560000300407412,0.9373153060370589,0.08721923828125,-0.9383544921875,0.258407592773438,-0.0011859056334122,0.0139163482762091,0.0095775262282519,0.0637359619140625,-0.977737426757812,0.114913940429688,-0.0138881187686542,-0.0116172413071437,-0.0055068845020658,0.07153778076171875,-0.9635513305664063,0.1851165771484375,-0.00993769213407426,-0.00429658431306842,0.00012258530497635025,0.006836929135831989,0.013273836950652295,0.0450448509063248,0.004340720405785536,0.007144873700982861,0.004532470932250494,False
132,0.0219999998807907,0.06957010814673144,0.0918426513671875,-0.92376708984375,0.32293701171875,-0.0041550639327416,0.002153432057438,0.0019979034497774,0.0776519775390625,-0.951995849609375,0.231597900390625,-0.014991466408274,-0.0073481940797466,-0.0064453824702097,0.08129425048828125,-0.944505310058594,0.2635543823242188,-0.01162874616305277,-0.004179351961883124,-0.0007480020553705461,0.004115381186124172,0.00859294430611648,0.027564817483633892,0.0037710427965565946,0.0031582989640035566,0.002654344129167561,False
133,0.7149999976158143,0.5114521912712924,0.194046020507812,-0.869598388671875,0.382369995117188,0.0008021441203318,0.249207962165255,-0.003361175611789,0.107955932617188,-0.936996459960938,0.329208374023438,-0.047323307306272,0.0096393115655418,-0.0629680471299425,0.13396301269531258,-0.9159698486328125,0.34861297607421887,-0.01343940275658675,0.10390203150695095,-0.02716770522822533,0.027802518809452306,0.019458058760153676,0.016759441260640776,0.013235965577323832,0.08625301614210135,0.017713982162765065,False
134,2.672000002861026,0.8450088199077455,0.371170043945312,-0.854080200195312,0.365264892578125,0.0344799466332559,0.437267348857309,-0.0151714960979634,0.130233764648438,-0.995941162109375,0.24932861328125,-0.0874781839063778,0.274664053760886,-0.209217136288298,0.2011993408203126,-0.9244232177734375,0.3110198974609374,-0.03305755229504459,0.35229376142970736,-0.07630907271586175,0.07073999433571702,0.03835115440474286,0.035167666483034606,0.029820719476343197,0.05521079792918955,0.06030628565348233,False
135,5.479999923706056,1.1571421647904239,0.40631103515625,-0.819931030273438,0.688400268554688,0.128690601775354,0.410873291925752,0.242999068399844,0.0241241455078125,-1.06143188476562,0.3092041015625,-0.166215340482897,-0.291557283503586,-0.131383590269642,0.15775909423828116,-0.9107467651367184,0.4414703369140624,0.004043184535347471,0.1742074602826144,-0.021199348172470493,0.10452799278924069,0.07048954905099046,0.10891426652188534,0.08642755939693794,0.19053124683824887,0.1127755456040772,False
136,8.950999927520758,1.457687894152962,1.066162109375,-0.379150390625,0.557220458984375,0.3591395235382,0.734864681713195,0.216525915583911,-0.40985107421875,-1.27803039550781,0.319305419921875,-0.1491684463453,-0.449911771396896,-0.44696871207625,0.1189697265624999,-0.8961975097656246,0.4061660766601564,-0.0026674221478233673,0.012032268331421684,-0.03183153945561573,0.43220653380273993,0.23681791669925328,0.07687923933117718,0.14793231655822212,0.3136228474032941,0.18260545802199904,False
137,11.95399999618531,0.4071091961541104,0.6844482421875,-0.833053588867188,0.368377685546875,0.359752050588918,0.0785688447956267,0.381531914615804,-0.3341064453125,-1.25991821289062,0.238174438476562,-0.146511943157946,-0.325085150047138,-0.222409104748005,0.05956878662109379,-0.9682189941406241,0.32989654541015623,0.05809382317643591,-0.08854121128709376,0.11832006606930916,0.27319632724050985,0.12051533360936796,0.03906320892458933,0.14497637328840376,0.12708629313481684,0.1676990827335524,True
138,12.80399971008299,0.29341671989559726,0.5277099609375,-0.594894409179688,0.605667114257812,0.286536425900459,0.422455379506507,0.38997014052972,-0.3973388671875,-1.35743713378906,0.0569305419921875,-0.202481202943161,-0.413460552924764,-0.347386727331571,0.12701110839843763,-0.9286224365234373,0.25293121337890623,-0.030844545324021595,-0.02309229644368797,0.01563038538539498,0.254331951799356,0.23600852255141708,0.15445930688104215,0.1449094975595216,0.23706784424646782,0.22266497927781134,True
139,12.68200006484986,0.3669633929123516,0.204147338867188,-0.826263427734375,0.255416870117188,0.276639586657507,0.416039291808288,0.209666411564194,-0.222305297851562,-1.09283447265625,-0.0963592529296875,-0.218012758420503,-0.464562885817858,-0.15634406758641,0.00415039062500025,-0.9531372070312496,0.07829132080078134,-0.024118678727804543,-0.040256156616361415,0.05156833282063651,0.15132987355501218,0.09672840969322294,0.12088937682008682,0.14022080942296608,0.24885979564682667,0.16019094905854447,False
140,9.674000310897844,1.983292475500206,0.113357543945312,-0.840805053710938,0.144485473632812,0.499231117940183,0.300093513745617,0.213273663260707,-0.37872314453125,-1.67988586425781,-0.554901123046875,-0.265845794759416,-0.421577068978998,-0.286330297232087,-0.15412445068359384,-1.105714416503907,-0.0824874877929688,-0.006662723046771085,-0.1503602908279433,0.03881014003928123,0.16319974893295547,0.27091748148916556,0.2003753599969672,0.22173968881239742,0.21260786827837097,0.14404639880931328,True
141,3.668000030517579,1.6086559082537897,0.0612640380859375,-0.879653930664062,0.474929809570312,0.0693290073935968,-0.074444939847639,0.175385136748258,-0.248153686523438,-1.11758422851562,-0.12689208984375,-0.0432521329478679,-0.42364900830708,-0.0010599381138515,-0.06751251220703125,-0.968473815917968,0.26924438476562507,0.00756036812379324,-0.20448520503183437,0.06703024663547305,0.11433539791529768,0.07276589711190519,0.20651103044076327,0.037018174956925616,0.11621033841933026,0.0496113835869372,False
142,4.185000085830691,1.3377531596378074,0.401962280273438,-0.847518920898438,0.589950561523438,0.0940005317320908,0.0338565006220683,0.238319095416248,-0.28179931640625,-0.959487915039062,0.347503662109375,-0.137215380424698,-0.737615993435356,-0.0992703948971396,-0.10661926269531241,-0.9099670410156249,0.44315948486328127,-0.010485477738692689,-0.4291270507745403,0.09557326151383716,0.19545577002643863,0.039437820279865594,0.08982141778403188,0.08412709889880866,0.24145552018035943,0.11511195172298702,False
143,8.138999938964847,1.3620120397724413,0.1759033203125,-0.838546752929688,0.505218505859375,0.0716371691103685,0.116284798469438,0.189923865771219,-0.065826416015625,-0.927047729492188,0.308395385742188,-0.126795762659763,-0.182331459819512,-0.0882861869811078,0.11179504394531255,-0.8893936157226564,0.3959671020507813,-0.02608473077094466,-0.0014260961321265267,-0.0012229768357861596,0.07434860631366157,0.026897982508113313,0.07522466475087301,0.05542765202554614,0.0911380871570099,0.07929030292998006,False
144,11.252000141143828,0.615391339778943,0.20379638671875,-0.940322875976562,0.219268798828125,0.0258883226405513,0.108701447265437,0.166096829814389,-0.18231201171875,-1.07339477539062,-0.02911376953125,-0.110795490830567,-0.220331572781635,-0.0571224085372186,0.02260437011718745,-1.0013275146484375,0.051876831054687544,-0.033973173709424764,-0.03711005789420728,0.03418665270240543,0.11615874888828659,0.04427019403968363,0.0827878930337631,0.03929901203021721,0.10723197854616337,0.0765727506178442,False
145,7.725000143051146,1.8221555562960348,-0.18206787109375,-0.912750244140625,0.3092041015625,0.084024330288654,-0.296776812924032,0.33713781819251,-0.57940673828125,-1.05239868164062,0.03240966796875,-0.0244749830500462,-0.829777079802529,0.0628937449355293,-0.3406021118164063,-0.9896728515624996,0.15001525878906274,0.00939398116592369,-0.5661436794870853,0.17854873243877423,0.10842555846867856,0.04557661586461845,0.07738219939341015,0.0293061236068636,0.18606980107120155,0.07597146946328859,False
146,4.326000165939332,0.7371296153901734,0.31170654296875,-0.825347900390625,0.639495849609375,0.0847007732055341,0.173882581261236,0.239090879500153,-0.466217041015625,-1.031982421875,0.380813598632812,-0.0928002450287921,-0.746602031585501,-0.153887301480812,0.0659011840820313,-0.9425109863281245,0.4661499023437499,0.001311154099478698,-0.23806015626345953,0.054045099266021156,0.26005198210597225,0.06819327026822142,0.09574627881893405,0.05934847922590964,0.3171950693936171,0.13047073153250757,False
147,1.354999971389769,2.8076927919130585,0.546798706054688,-0.889251708984375,0.943634033203125,0.064194965444142,0.27849367940842,0.307586051156446,-0.01776123046875,-1.12998962402344,0.185684204101562,-0.295451623965609,-0.432503219983266,-0.141591220411807,0.11866455078125009,-0.9966613769531257,0.42527313232421865,-0.05176732421728723,-0.011889469633771434,0.04086977556312667,0.17297535960273952,0.08217044712888259,0.2176301348845459,0.09993631815792939,0.25524445042765614,0.14090762975439294,False
148,8.602000188827514,1.452643572121445,0.721542358398438,-0.564422607421875,0.463302612304688,0.426472491694782,0.237808301119171,0.495602028322732,-0.090606689453125,-1.15719604492188,-0.0302276611328125,-0.449428940291265,-0.542377257076666,-0.422052975865796,0.10479736328125,-0.9293594360351578,0.22906341552734394,0.06221261485513058,0.018961387382033425,0.03982469788815765,0.2373192971925416,0.19849755635473987,0.15042488309506033,0.2951544385945817,0.22952974532585163,0.28039151124997685,False
149,12.51400012969973,0.24486732804019443,0.626861572265625,-0.734451293945312,0.549148559570312,0.0001083906563662,0.375448988369954,0.418590333816474,-0.556198120117188,-1.31138610839844,-0.332504272460938,-0.456284183253238,-0.390081194347176,-0.275404146227819,0.00889434814453129,-0.9820465087890626,0.1391677856445312,-0.16503393559172735,-0.015726259184637742,0.04345176350318035,0.4099241590600079,0.17172558993227374,0.3017072578038548,0.17891650206981402,0.25916667089016804,0.24742445090796436,False
150,12.001999950408946,0.9789993382886276,0.480758666992188,-0.798171997070312,0.208053588867188,0.125873509974268,0.520276748454534,0.163923157732666,-0.296829223632812,-1.30343627929688,-0.20013427734375,-0.194505035478373,-0.233666819307988,-0.519381660012158,0.0358245849609377,-0.9949310302734384,0.04183197021484379,0.01582809846472243,0.079140279270725,-0.023818753525839828,0.24447028016490013,0.14035360353665022,0.14978500403820433,0.11069587046075693,0.23517687069859755,0.19582164678956834,False
151,8.050999832153321,1.7733610771681225,0.2135009765625,-0.859603881835938,0.0657196044921875,0.0508096514892948,0.124552049441371,0.225878138383943,-0.397216796875,-1.11845397949219,-0.430633544921875,-0.0946498104058522,-0.431939428780497,-0.142316399176635,-0.12577362060546884,-1.0364517211914062,-0.0743621826171875,-0.020663067423761308,-0.17452602761220953,0.013779754743899,0.18300988126070855,0.08346579234552216,0.16020694294806936,0.045371443056278764,0.16624359924605683,0.1101754482679539,False
152,3.8779999494552584,0.9157728792415594,0.324264526367188,-0.755325317382812,0.683517456054688,0.0405053485995602,0.320029671349841,0.155002633345337,-0.109298706054688,-1.09806823730469,-0.00787353515625,-0.207550796394235,-0.0943941469412046,-0.180075229743997,0.13347473144531266,-0.905656433105469,0.4106231689453126,-0.04895883442652234,0.13933847907731983,-0.05022655236862188,0.10658246846701921,0.09580317078789402,0.2024820382365354,0.07493891723194096,0.12345420065355335,0.09096709222837779,False
153,7.657999753952028,1.761771760421736,0.504501342773438,-0.649093627929688,0.615951538085938,0.141435958120255,0.452430056523675,0.437342982632267,-0.639205932617188,-1.20668029785156,0.284896850585938,-0.546841247695856,-0.624111002511742,-0.163686136395649,0.12509918212890617,-0.8998596191406248,0.43195953369140627,-0.051365080366241635,-0.006048305151678912,-0.0007235276049527284,0.2972941170506099,0.1672111448646313,0.11229026638494459,0.19419045046457947,0.2646283603758198,0.16985777092068743,False
154,10.9829999923706,0.5906128599289358,0.5906982421875,-0.586883544921875,0.466201782226562,0.279303813012022,0.389831922469145,0.297095326990406,-0.529464721679688,-1.08879089355469,0.155380249023438,-0.218974692206239,-0.250850333609507,-0.362740117331987,0.1958236694335938,-0.9031997680664062,0.29619598388671886,0.02547031287585244,0.09449966138359353,-0.03516816072215422,0.28494868045607763,0.15935851953007843,0.10184615421923769,0.15736620293198705,0.22151288700699454,0.2238194122906033,False
155,12.25500011444092,0.27769906358857493,0.603729248046875,-0.633071899414062,0.51617431640625,0.41797940466241,0.342642838481813,0.509386017492764,-0.59881591796875,-1.34725952148438,0.0670623779296875,-0.351179867672171,-0.605754365750044,-0.331233323739695,0.04389495849609364,-0.9316406250000002,0.30913085937499984,0.029607586892512285,-0.19674278321592306,0.15626486517559082,0.33003461427235403,0.22761728377520582,0.13454162576105166,0.21245354187065757,0.25546814142650087,0.23281420978148987,False
156,13.74199981689454,0.8054922349806752,0.515487670898438,-0.468521118164062,0.389175415039062,0.126420789578279,0.506892499764123,0.184590619372226,-0.324874877929688,-1.18408203125,-0.0543670654296875,-0.400685635491763,-0.372844949456074,-0.284811762778524,0.12098999023437507,-0.9026748657226561,0.27272644042968736,-0.05123727526552879,0.02820162425822683,-0.0068880264749918586,0.22643024879822438,0.2143816443230236,0.13043363295894686,0.14939356940665321,0.23737122902304486,0.13161435842183294,False
157,14.450999832153352,0.6816556603026053,0.669723510742188,-0.343994140625,0.603668212890625,0.448421999083106,0.311535252736924,0.636674198638082,-0.443695068359375,-1.339599609375,-0.194610595703125,-0.47165994380681,-0.765580516461733,-0.204914533231166,0.21590270996093777,-0.9315414428710932,0.0518524169921875,-0.02329957027132879,-0.05301938277217718,0.09351186830367207,0.29444716973862917,0.35307217724452605,0.2312565219762412,0.2784506221793325,0.3400646846002466,0.27563770572923807,False
158,13.1599998474121,0.0,0.183624267578125,-0.733993530273438,0.144027709960938,0.237817888499095,0.187431146990905,0.466141874028166,-0.561065673828125,-1.18896484375,-0.0970001220703125,-0.186435657375433,-0.620541834018818,-0.236910549515705,-0.08708648681640634,-1.0175460815429684,0.0167190551757813,-0.010145898068096713,-0.043974222445831865,-0.014064420032817448,0.21635905702246114,0.12644936031285126,0.08408694541820855,0.13553014442103775,0.28586702499436406,0.23396989710820298,False
159,9.650999784469592,3.963607712699549,0.156005859375,-0.9547119140625,-0.0281219482421875,0.0624556549362113,0.180645945165601,-0.0024181502697919,0.00067138671875,-1.11605834960938,-0.147735595703125,-0.136303247751346,-0.0546563213678052,-0.136940275884092,0.089105224609375,-1.0389129638671886,-0.08025665283203125,-0.00904382874580015,0.04398173256010606,-0.05415652592603,0.05408922036292623,0.055563105854095185,0.04225465530649138,0.06427528844339883,0.06547363084596357,0.041156749112988264,False
160,5.01300005912781,1.315193718251997,0.268722534179688,-0.819686889648438,0.452056884765625,0.0426585143408892,0.242506916230397,0.0190706302499484,0.087554931640625,-1.02963256835938,0.0113372802734375,-0.0242211837981617,-0.0066610985185061,-0.147767623611919,0.159478759765625,-0.9388214111328128,0.23165283203125003,0.00496570353695085,0.07229616832210857,-0.027537431882361053,0.0590754038488879,0.06642341867109036,0.17144024554365545,0.018445229813512477,0.07981218996729403,0.04526279735780645,False
161,1.26999998092651,0.0,0.544418334960938,-0.805145263671875,0.396530151367188,0.0227394009676416,0.630526024945525,-0.063017315610109,0.308074951171875,-0.944000244140625,0.290023803710938,-0.130126045602907,0.265049775909591,-0.262049458625508,0.4382904052734376,-0.8909622192382812,0.34502410888671897,-0.04126706593454467,0.511785312582038,-0.15932968422127577,0.07723526347569372,0.036447567038384615,0.03522216998798969,0.042742376933264964,0.11159462272944314,0.06021151961737168,False
162,1.26999998092651,0.0,0.392471313476562,-0.735595703125,0.589828491210938,0.0463941304019434,0.492269348534607,0.0913200600949261,0.098236083984375,-0.921478271484375,0.334060668945312,-0.0578350704449238,-0.0354021993187503,-0.197137570215917,0.2065261840820313,-0.8660308837890625,0.47146606445312483,-0.00776708268760519,0.2258666068964225,-0.07135239729500632,0.10358997151534398,0.05576294895588455,0.07267102983621172,0.03600936882115702,0.17214949799102658,0.09020247068360485,False
163,1.26999998092651,0.0,0.091888427734375,-0.885574340820312,0.43267822265625,0.048498560295324,0.107192233875689,0.0430113831853247,-0.23663330078125,-1.1090087890625,0.0880584716796875,-0.125992020642777,-0.0851178242322406,-0.154306749352499,0.02577056884765625,-0.9707107543945312,0.18625488281250008,-0.018679917886422915,0.02330939733575119,-0.00739503908332112,0.09686548975364863,0.05677838729569676,0.10701387092979164,0.06130444355856659,0.05410318735359093,0.05722249872990733,False
164,3.5039999723434443,2.7831804043175943,0.0994110107421875,-0.903732299804688,0.21356201171875,7.0041136669084e-05,0.0361849023631246,0.0331313218572398,-0.0583038330078125,-1.06455993652344,-0.011932373046875,-0.119349031619683,-0.126867668009195,-0.066313243775191,0.04091339111328125,-0.9868270874023441,0.11208801269531259,-0.028212782903194213,-0.02768718143045622,-0.00789414210321287,0.054236784723639735,0.057988106185132525,0.06518507015515915,0.037034577634397284,0.050147137137649796,0.03564679289383235,False
165,3.8499999046325697,4.681111291435602e-16,0.118087768554688,-0.91802978515625,0.228866577148438,0.0037209686750587,0.0130473588125162,0.0639060124658684,0.025177001953125,-1.00325012207031,0.116622924804688,-0.0475360938773694,-0.0509223032034051,-0.031391212400982,0.07360534667968759,-0.9613189697265623,0.1744308471679686,-0.02191800219262843,-0.01698252553404996,0.00483062800646204,0.02964273460176931,0.029009104183362555,0.035726622724295734,0.01909024127693563,0.01820315505894067,0.03143342002723164,False
166,3.8499999046325697,4.681111291435602e-16,0.090362548828125,-0.912948608398438,0.329605102539062,-0.0052570799918164,0.0010972223691126,0.0031100395209945,0.063720703125,-0.977005004882812,0.178939819335938,-0.0266622372533283,-0.0126870331170285,-0.0043215115008715,0.08577880859375,-0.9365341186523439,0.2803512573242188,-0.013344034957951029,-0.005338253141842,-0.00054933023805064,0.008231312395569141,0.019140501911281978,0.05039807145206636,0.00532997323083535,0.0043354276759260445,0.0029522480510249683,False
167,3.8499999046325697,4.681111291435602e-16,0.0959625244140625,-0.926101684570312,0.31427001953125,-0.0106859338739429,0.000103596966404,0.0073878751799888,0.0802001953125,-0.934158325195312,0.297378540039062,-0.0159563296712098,-0.0137565586108043,-0.0054831823683641,0.0884552001953125,-0.9288726806640625,0.3074584960937499,-0.012915212759226469,-0.00417088310961668,-0.00012146677731849995,0.004566574859696972,0.0026888124282550027,0.006092431069688016,0.0017272871513502762,0.004141606806556731,0.0033896265201176813,False
168,3.8499999046325697,4.681111291435602e-16,0.09710693359375,-0.917648315429688,0.342208862304688,-0.0105767442692497,-0.0041872881819315,0.0094680703074497,0.0765380859375,-0.935256958007812,0.291717529296875,-0.0170623404719197,-0.0147850714237929,-0.0075609806508439,0.08914947509765625,-0.926947021484375,0.3085556030273438,-0.01382185932073306,-0.00873873701132057,0.00137373838509557,0.006509726209585079,0.0063257254262107645,0.018677249879802776,0.0020094507825997496,0.0027424522156941603,0.005003482218597445,False
169,3.8499999046325697,4.681111291435602e-16,0.098663330078125,-0.920089721679688,0.31658935546875,-0.0086696546126439,-0.0009470200836321,0.0063303339111183,0.0714263916015625,-0.937393188476562,0.272628784179688,-0.0191851461768218,-0.0094896419122793,-0.0044472127043233,0.084100341796875,-0.9299026489257812,0.2956863403320311,-0.01344638023864277,-0.005763160493764109,-0.0010823885618408999,0.008947328537444512,0.00591667490056675,0.01690791256434261,0.0031502005545140706,0.002978711560622001,0.003594363086551704,False
170,3.8499999046325697,4.681111291435602e-16,0.0927581787109375,-0.920730590820312,0.3189697265625,-0.0065481804882868,-0.0031143005787386,0.0073745593745384,0.0707550048828125,-0.93536376953125,0.2950439453125,-0.0203777097129593,-0.0136953059057325,-0.0022415826895196,0.08505401611328126,-0.9280761718749998,0.3061737060546876,-0.012240740581552998,-0.00853607045236555,0.00266886025481198,0.006905075347396395,0.003815058034155945,0.008189424295514069,0.003864862070339865,0.003369416805708954,0.002773575697674233,False
171,3.8499999046325697,4.681111291435602e-16,0.09405517578125,-0.924774169921875,0.307022094726562,-0.0116840866505046,-0.0020234697962422,0.0019707392066586,0.0792236328125,-0.939193725585938,0.269943237304688,-0.0192384093986234,-0.0115759623102474,-0.0033459955935755,0.08455352783203125,-0.9328720092773437,0.2844436645507812,-0.015046141105453362,-0.0053272010233181705,-0.00067340691323743,0.0044363880664421125,0.004765060563787495,0.012614648142364996,0.002443300095986909,0.00275926536437758,0.001756572012581739,False
172,3.8499999046325697,4.681111291435602e-16,0.087310791015625,-0.921600341796875,0.31829833984375,-0.0096744652919308,-0.0009733853784239,0.0031158984753927,0.0781707763671875,-0.936813354492188,0.290206909179688,-0.0149302137032022,-0.006318882318431,-0.0011973572260996,0.08226776123046875,-0.9294448852539062,0.30102996826171896,-0.01259539374391884,-0.00353468055680762,0.00020003002947585998,0.002585675733243654,0.004079667757798256,0.007290480047413944,0.0015576898877001904,0.0013509301437385757,0.0013429945427215616,False
173,3.8499999046325697,4.681111291435602e-16,0.0872650146484375,-0.926055908203125,0.302276611328125,-0.0117812920302925,-0.002016811893517,0.0020253340090052,0.0795135498046875,-0.932083129882812,0.297042846679688,-0.0170370404415639,-0.0073556509307988,-0.0022551648110791,0.08260955810546874,-0.9295913696289062,0.3000701904296876,-0.01333444757802674,-0.004061853294588809,-0.00055252603135872,0.0021692831285989944,0.001756581269680867,0.0016762026533847134,0.0014327679501144994,0.0014611176264099847,0.001353713321975713,False
174,3.8499999046325697,4.681111291435602e-16,0.085479736328125,-0.925460815429688,0.304214477539062,-0.0117213709057658,-0.0020445087688538,0.0020008329269765,0.0792999267578125,-0.933242797851562,0.295730590820312,-0.0159802981210205,-0.0052283178520435,-0.0012218583081283,0.0820220947265625,-0.9299758911132813,0.3004470825195311,-0.013870808221568729,-0.0034200314718797102,8.005462236781001e-05,0.00194759646077116,0.0024269998200758883,0.002467791186186132,0.0013347236148879328,0.0008737737154311135,0.0012067126390382448,False
175,3.8499999046325697,4.681111291435602e-16,0.0906524658203125,-0.866287231445312,0.486053466796875,0.0105487810778039,0.0011606056030565,0.0587770305224848,0.048065185546875,-0.933319091796875,0.297805786132812,-0.0148982557701213,-0.105212173605215,-0.0065519089138129,0.07499542236328124,-0.9054901123046875,0.39410705566406223,-0.010615439999888539,-0.029181188170379697,0.01265456918334042,0.013634100549987142,0.024399006545640693,0.08323550529497063,0.007620389661407684,0.04165005314920294,0.021193727832072344,False
176,3.8499999046325697,4.681111291435602e-16,0.0317535400390625,-0.880767822265625,0.47021484375,0.0713815056457208,-0.175463433684307,0.310690498039151,-0.315200805664062,-0.973602294921875,0.353973388671875,-0.0706858879689922,-0.706723857422654,0.0750303026552384,-0.13014068603515624,-0.90682373046875,0.4065658569335936,-0.01068236523808223,-0.4096507411957401,0.15149722092890916,0.09937436830923725,0.029040608515747815,0.03430407464622546,0.04040161018768505,0.17406471609582408,0.07062307570047742,False
177,2.169999933242796,1.4459137579603403,0.078887939453125,-0.871353149414062,0.517166137695312,0.0557713869162214,-0.0643414393040964,0.16543077322576,-0.229965209960938,-0.935470581054688,0.345458984375,-0.0843375180328473,-0.633981476459903,-0.0198892859690388,-0.09615020751953125,-0.8911331176757811,0.42453765869140625,-0.01272873821969912,-0.3578432032459926,0.09611268479263263,0.09931844334173516,0.018218302682563043,0.0493785862998852,0.0397887336791077,0.1820196273083424,0.06717219742961329,False
178,1.0499999523162802,2.340555645717801e-16,0.104156494140625,-0.844833374023438,0.476959228515625,0.0249098772560562,0.0557359668737233,0.0538605688340895,-0.0643463134765625,-0.928024291992188,0.371322631835938,-0.10255859989506,-0.132054706864342,-0.0722635445987551,0.04026031494140625,-0.8894744873046875,0.42460784912109395,-0.01957322201086812,-0.01700028881852083,-0.010818665822672512,0.05277781710953059,0.02736336065391716,0.03376123349473911,0.042011248492987346,0.06643541714252851,0.0464568445139248,False
179,1.0499999523162802,2.340555645717801e-16,0.208847045898438,-0.840850830078125,0.414825439453125,0.0763096852429125,0.0985675866854677,0.101120492906418,-0.0310211181640625,-0.954727172851562,0.265869140625,-0.0873687279855755,-0.118107465919488,-0.0839425712431886,0.079974365234375,-0.8996902465820312,0.3529739379882813,-0.004391153163377162,-0.014650501893911181,0.0015921708577038888,0.07758792667536121,0.03359798438131708,0.04233983161536735,0.0492071988285965,0.07469709991155313,0.056204036688241456,False
180,1.0499999523162802,2.340555645717801e-16,0.143341064453125,-0.780624389648438,0.38739013671875,0.126857015364834,0.12566897920255,0.136514969058007,-0.079010009765625,-1.06072998046875,0.190719604492188,-0.033878604859116,-0.149742091244103,-0.206392055003942,0.04242401123046875,-0.9439559936523437,0.2921386718750001,0.0001389104824584892,-0.012978542729948537,-0.0016710270575810778,0.08332835838560201,0.075638827360629,0.053221481496929145,0.04858494279706273,0.08517350240733676,0.09991599519599327,False
181,1.0499999523162802,2.340555645717801e-16,0.1949462890625,-0.908233642578125,0.292129516601562,0.0583187004988822,0.121786090333215,0.0829643921748025,-0.004119873046875,-1.06808471679688,0.1707763671875,-0.0821630470027976,-0.0899852837565784,-0.0768566985308148,0.12188415527343754,-0.9634078979492186,0.21714935302734378,-0.01580801823010324,-0.008831388385644406,0.006364848478845759,0.06289736267063004,0.049047615967826724,0.04132767358292783,0.04411963550748913,0.07561265711841526,0.05948608333793894,False
182,1.0499999523162802,2.340555645717801e-16,0.128753662109375,-0.92181396484375,0.3128662109375,0.0674490819801098,0.0671377584486796,0.137365316394069,-0.1121826171875,-1.06333923339844,0.145172119140625,-0.0913946286054483,-0.215061975932695,-0.102750081177437,0.02938995361328125,-1.0027297973632825,0.2177200317382813,-0.008782599274474206,-0.020686609767797612,-0.00760665386353882,0.08421820162774189,0.049060390152056564,0.048568931587409006,0.04727517423396715,0.07924817612105363,0.07481700425710085,False
183,1.0499999523162802,2.340555645717801e-16,0.116378784179688,-0.719589233398438,0.26544189453125,0.0590143181756109,0.0614545726824505,0.125959263761369,-0.00494384765625,-1.0643310546875,0.149200439453125,-0.191758251130065,-0.0436135239077917,-0.0381636310530535,0.0655517578125001,-0.9428649902343755,0.20010528564453103,-0.0070031016656941295,-0.0032500685311109,0.01187828435719324,0.04264433509906811,0.0972546889090654,0.041204921712461616,0.0734228638387351,0.034450951838393085,0.04687140170137803,False
184,1.04999995231628,0.0,0.109542846679688,-0.922561645507812,0.215438842773438,0.0486636762829089,-0.0032245554478679,0.129741485141499,0.0050048828125,-0.972427368164062,0.123489379882812,-0.0434289668442492,-0.0896481275625743,-0.0249298509642317,0.05269949776785721,-0.946395874023437,0.16871425083705344,0.007870059517926858,-0.031044354691578385,0.04143840611004861,0.034107001213268595,0.016116303343535816,0.04029618971806559,0.027831352937191134,0.029866582408550196,0.0628020535060732,False
