timestamp,latitude,longitude,speed,accelerometerX,accelerometerY,accelerometerZ,gyroX,gyroY,gyroZ
1492639058.5,40.4535688201597,-79.9464030062335,4.30999994277954,0.021881103515625,-0.825286865234375,0.405120849609375,-0.225092505862369,0.406719026941337,-0.137697146265893
1492639058.7,40.4535688201597,-79.9464030062335,4.30999994277954,0.143417358398438,-0.904327392578125,0.4136962890625,-0.073838804383537,0.38019074669084,-0.232039361565841
1492639058.9,40.4535688201597,-79.9464030062335,4.30999994277954,0.451873779296875,-0.90118408203125,0.150436401367188,-0.136349054122095,0.499740580656715,-0.190339318901271
1492639059.1,40.4535688201597,-79.9464030062335,4.30999994277954,0.351043701171875,-0.833831787109375,0.252914428710938,-0.0690259396615458,0.563128608290563,-0.172754199907369
1492639059.3,40.4535524302712,-79.9464637512025,5.40999984741211,0.449066162109375,-0.903167724609375,0.247634887695312,-0.122703283012638,0.479441700512022,-0.186948582201382
1492639059.5,40.4535524302712,-79.9464637512025,5.40999984741211,0.25,-0.990753173828125,0.387908935546875,-0.0316719095798763,0.323576735605718,0.000973119062314954
1492639059.7,40.4535524302712,-79.9464637512025,5.40999984741211,0.313644409179688,-0.882095336914062,0.204940795898438,-0.0131288515418726,0.43833021644836,-0.046046587879688
1492639059.9,40.4535524302712,-79.9464637512025,5.40999984741211,0.286270141601562,-0.925811767578125,0.251495361328125,-0.106395149761429,0.388932572969025,-0.105515773969484
1492639060.1,40.4535287034413,-79.9465348219007,6.38000011444092,0.2210693359375,-0.902450561523438,0.234024047851562,-0.0472487387957498,0.309843879128615,-0.0354021993187503
1492639060.3,40.4535287034413,-79.9465348219007,6.38000011444092,0.243377685546875,-0.961318969726562,0.15570068359375,-0.0589083243642257,0.304587598085126,-0.119738918403271
1492639060.5,40.4535287034413,-79.9465348219007,6.38000011444092,0.159652709960938,-0.854400634765625,0.26434326171875,-0.103685649668382,0.386792989349255,-0.0713636624664173
1492639060.8,40.4535287034413,-79.9465348219007,6.38000011444092,-0.0328216552734375,-1.0194091796875,0.307571411132812,-0.00575216163846215,0.264894247301931,-0.0572518381661964
1492639061.0,40.4535287034413,-79.9465348219007,6.38000011444092,-0.0830535888671875,-0.988983154296875,0.207077026367188,0.0401841713720966,0.0625067876291408,0.0546270265958143
1492639061.1,40.4535287034413,-79.9465348219007,6.38000011444092,-0.136871337890625,-0.76312255859375,0.305160522460938,-0.0457501780503622,0.00668000696224575,0.000580569117637274
1492639061.3,40.453504097065,-79.9466085271682,7.09999990463257,-0.099090576171875,-1.16673278808594,0.098358154296875,0.0331220007934245,0.15505003761274,-0.233561890761039
1492639061.5,40.453504097065,-79.9466085271682,7.09999990463257,-0.108901977539062,-0.672622680664062,0.206146240234375,-0.0606628148903699,0.138652422148904,-0.159844792839319
1492639061.7,40.453504097065,-79.9466085271682,7.09999990463257,-0.102951049804688,-0.79693603515625,0.0933837890625,0.0230200981465359,-0.0650250727559197,0.0718398356693235
1492639061.9,40.453504097065,-79.9466085271682,7.09999990463257,-0.0612945556640625,-1.04289245605469,0.610992431640625,-0.207961189518217,-0.248602093017262,0.118994564878594
1492639062.1,40.453504097065,-79.9466085271682,7.09999990463257,0.0817413330078125,-0.883682250976562,0.29486083984375,0.0408041552738671,-0.0747237728137703,0.0123389579625551
1492639062.3,40.4534766798794,-79.9466906518567,7.98000001907349,0.0236053466796875,-0.928314208984375,0.317352294921875,-0.116358834347742,0.0475555349533269,-0.0311680395016334
1492639062.5,40.4534766798794,-79.9466906518567,7.98000001907349,0.01708984375,-1.03742980957031,0.26727294921875,0.170730730111127,-0.134078709292802,-0.0202964832997119
1492639062.7,40.4534766798794,-79.9466906518567,7.98000001907349,0.111541748046875,-0.970687866210938,0.146133422851562,0.0854081087910592,0.0196418783037704,-0.0823409461636149
1492639062.9,40.4534766798794,-79.9466906518567,7.98000001907349,0.119125366210938,-1.06449890136719,0.485519409179688,-0.195084805647683,-0.0221199496980891,0.080158219334186
1492639063.1,40.4534766798794,-79.9466906518567,7.98000001907349,0.0755462646484375,-0.990890502929688,0.128097534179688,-0.0323960230802689,-0.0114859474654027,0.0263533105668791
1492639063.3,40.4534478645646,-79.9467786170378,8.40999984741211,0.0923614501953125,-0.986129760742188,0.119552612304688,-0.0167779148674992,-0.0371148782157803,0.0383077080680268
1492639063.5,40.4534478645646,-79.9467786170378,8.40999984741211,0.14727783203125,-0.81951904296875,0.218185424804688,-0.184956537706003,0.0862917456407475,-0.0554270401872741
1492639063.7,40.4534478645646,-79.9467786170378,8.40999984741211,0.22845458984375,-0.92138671875,0.117706298828125,-0.0669223087164922,-0.0197790310999095,-0.0230246255203891
1492639063.9,40.4534478645646,-79.9467786170378,8.40999984741211,0.0413360595703125,-0.970932006835938,0.1138916015625,-0.223777170599979,0.259926386604497,-0.080795513783042
1492639064.1,40.4534478645646,-79.9467786170378,8.40999984741211,0.237838745117188,-1.08734130859375,0.185562133789062,0.104723749861295,0.107810886196915,-0.0450532287930885
1492639064.3,40.4534197925868,-79.9468669059121,7.8899998664856,-0.0740814208984375,-0.912155151367188,0.07025146484375,-0.0688006362333251,-0.0325230558642657,0.0292335192857998
1492639064.5,40.4534197925868,-79.9468669059121,7.8899998664856,-0.0819854736328125,-1.03260803222656,0.0569610595703125,-0.0142814676616589,-0.0403143999494015,0.0873873701132061
1492639064.7,40.4534197925868,-79.9468669059121,7.8899998664856,-0.0363922119140625,-1.02818298339844,0.0574951171875,0.0348085807117717,-0.0438388273360124,0.00046951530018097
1492639064.9,40.4534197925868,-79.9468669059121,7.8899998664856,-0.228759765625,-1.110595703125,-0.144607543945312,0.0290313853590628,-0.143806704122644,-0.0984895560655284
1492639065.1,40.4534197925868,-79.9468669059121,7.8899998664856,0.232879638671875,-0.932159423828125,-0.099151611328125,0.0955992273344654,-0.515404495240234,0.357358135085046
1492639065.3,40.4533953856059,-79.9469436680444,6.5,0.0282745361328125,-0.956161499023438,-0.0101470947265625,-0.084326865388487,-0.0356187143153738,-0.00503630393744885
1492639065.5,40.4533953856059,-79.9469436680444,6.5,0.371368408203125,-0.759963989257812,-0.019989013671875,-0.232756817163508,0.00470021300788085,-0.0311829532037378
1492639065.7,40.4533953856059,-79.9469436680444,6.5,0.104537963867188,-0.996841430664062,-0.00360107421875,0.072461417467748,-0.187665505166832,0.127039441899505
1492639065.9,40.4533953856059,-79.9469436680444,6.5,-0.001068115234375,-1.00830078125,-0.0499267578125,-0.0186104360135827,-0.0424254877455073,0.013779728112288
1492639066.1,40.4533953856059,-79.9469436680444,6.5,0.021942138671875,-1.05784606933594,-0.126373291015625,0.00315957431727001,-0.0436364270931663,-0.0211793212010732
1492639066.3,40.4533770608382,-79.9470013010732,4.44000005722046,0.007598876953125,-1.06147766113281,-0.145858764648438,0.0235892156714859,-0.00547439393676688,-0.0146713544452465
1492639066.5,40.4533770608382,-79.9470013010732,4.44000005722046,0.022735595703125,-1.03237915039062,-0.1549072265625,-0.0275197751243338,-0.0476820351051057,0.0392912134585931
1492639066.7,40.4533770608382,-79.9470013010732,4.44000005722046,0.029296875,-1.05226135253906,-0.129241943359375,-0.0174138777358101,-0.00732901931989806,0.0232973332160132
1492639066.9,40.4533770608382,-79.9470013010732,4.44000005722046,0.0315704345703125,-1.03675842285156,-0.106491088867188,-0.0236504683765577,-0.0338855290779502,-0.00228712274416005
1492639067.1,40.4533770608382,-79.9470013010732,4.44000005722046,0.05072021484375,-1.01455688476562,-0.003448486328125,-0.0051825114812942,0.00322349018343191,-0.00859109136048661
1492639067.3,40.4533698505228,-79.9470239781584,1.73000001907349,0.043914794921875,-1.01258850097656,0.0611114501953125,-0.017172861657158,-0.00839721323312885,0.00517691884300503
1492639067.5,40.4533698505228,-79.9470239781584,1.73000001907349,0.040863037109375,-0.92938232421875,0.265167236328125,0.00545681707357236,0.0020905814557122,-0.00847923859470329
1492639067.7,40.4533698505228,-79.9470239781584,1.73000001907349,0.0533905029296875,-0.956192016601562,0.172286987304688,-0.0200235092879788,0.00225543112718811,-0.0140716105677607
1492639067.9,40.4533698505228,-79.9470239781584,1.73000001907349,0.0608062744140625,-0.96600341796875,0.200271606445312,-0.005444832848667,-0.00634604656154982,0.00529170108598745
1492639068.1,40.4533698505228,-79.9470239781584,1.73000001907349,0.0501556396484375,-0.965408325195312,0.213851928710938,-0.0116547918785138,-0.00205249825212407,-0.00544509916477601
1492639068.3,40.4533685415287,-79.9470280950616,0.0,0.06317138671875,-0.964935302734375,0.193344116210938,-0.0159816297015655,-0.00521500204659316,-0.00228259537030692
1492639068.5,40.4533685415287,-79.9470280950616,0.0,0.058929443359375,-0.960861206054688,0.201828002929688,-0.0149461926697427,-0.00522139363320935,-0.000139549641120152
1492639068.7,40.4533685415287,-79.9470280950616,0.0,0.0599517822265625,-0.962417602539062,0.203659057617188,-0.0160335613428221,-0.00627786963764379,0.000918257943859321
1492639068.9,40.4533685415287,-79.9470280950616,0.0,0.05694580078125,-0.9627685546875,0.1964111328125,-0.0170676667940998,-0.00414387865616329,-0.000164050723148881
1492639069.1,40.4533685397315,-79.9470281007139,0.0,0.0627593994140625,-0.957778930664062,0.208541870117188,-0.0149315452837473,-0.00522165994931836,-0.00120561302547887
1492639069.3,40.4533685397315,-79.9470281007139,0.0,0.05767822265625,-0.963104248046875,0.198715209960938,-0.0149315452837473,-0.00522165994931836,-0.00120561302547887
1492639069.5,40.4533685397315,-79.9470281007139,0.0,0.060760498046875,-0.963638305664062,0.200332641601562,-0.0149315452837473,-0.00522165994931836,-0.00120561302547887
1492639069.7,40.4533685397315,-79.9470281007139,0.0,0.0618438720703125,-0.961929321289062,0.20367431640625,-0.0149315452837473,-0.00522165994931836,-0.00120561302547887
1492639069.9,40.4533685397315,-79.9470281007139,0.0,0.0583343505859375,-0.9615478515625,0.199798583984375,-0.0149315452837473,-0.00522165994931836,-0.00120561302547887
1492639070.1,40.4533685397315,-79.9470281007139,0.0,0.0595550537109375,-0.964248657226562,0.202880859375,-0.0149315452837473,-0.00522165994931836,-0.00120561302547887
1492639070.3,40.4533685379395,-79.9470281063501,0.0,0.05853271484375,-0.962051391601562,0.199874877929688,-0.0138348555468526,-0.000973918010641977,-0.00120534670936986
1492639070.5,40.4533685379395,-79.9470281063501,0.0,0.058074951171875,-0.962814331054688,0.202377319335938,-0.0170516878275593,-0.002016545577408,-0.00016937704532904
1492639070.7,40.4533685379395,-79.9470281063501,0.0,0.05987548828125,-0.964797973632812,0.20025634765625,-0.0138734713826588,-0.00416465131266591,-0.000131293841740906
1492639070.9,40.4533685379395,-79.9470281063501,0.0,0.058807373046875,-0.963409423828125,0.2021484375,-0.0149395347670175,-0.00628532648869601,-0.00120294986438879
1492639071.1,40.4533685379395,-79.9470281063501,0.0,0.0590362548828125,-0.962860107421875,0.199722290039062,-0.0181323985979135,-0.00413695443732909,-0.000174969683618206
1492639071.3,40.4533685360752,-79.9470281122134,0.0,0.0599365234375,-0.96148681640625,0.202499389648438,-0.0160042665708312,-0.0062784022698618,-0.00121386882485812
1492639071.5,40.4533685360752,-79.9470281122134,0.0,0.059539794921875,-0.963623046875,0.20379638671875,-0.013881460865929,-0.00522831785204356,-0.000128630680650827
1492639071.7,40.4533685360752,-79.9470281122134,0.0,0.0601806640625,-0.961013793945312,0.197525024414062,-0.0138907819297443,-0.00841958378628551,-0.00118670458173931
1492639071.9,40.4533685360752,-79.9470281122134,0.0,0.0577239990234375,-0.962127685546875,0.199905395507812,-0.0160109244735564,-0.00521446941437515,-0.000150468601589477
1492639072.1,40.4533685360752,-79.9470281122134,0.0,0.059814453125,-0.96185302734375,0.199752807617188,-0.0149461926697427,-0.00522139363320935,-0.000139549641120152
1492639072.3,40.45336853427,-79.9470281178909,0.0,0.056915283203125,-0.96258544921875,0.202957153320312,-0.0149382031864725,-0.00415772709383171,-0.000142212802210231
1492639072.5,40.45336853427,-79.9470281178909,0.0,0.057708740234375,-0.961105346679688,0.20281982421875,-0.0160042665708312,-0.0062784022698618,-0.00121386882485812
1492639072.7,40.45336853427,-79.9470281178909,0.0,0.059539794921875,-0.963058471679688,0.199081420898438,-0.0106712864879475,-0.00312175742979088,-0.000101200121423011
1492639072.9,40.45336853427,-79.9470281178909,0.0,0.0568389892578125,-0.9615478515625,0.203262329101562,-0.0149461926697427,-0.00522139363320935,-0.000139549641120152
1492639073.1,40.45336853427,-79.9470281178909,0.0,0.06060791015625,-0.965042114257812,0.198272705078125,-0.0117613183221169,-0.00843343222395392,-0.00116486666080066
1492639073.3,40.4533686346164,-79.9470278022925,0.0,0.05926513671875,-0.964828491210938,0.201675415039062,-0.0149461926697427,-0.00522139363320935,-0.000139549641120152
1492639073.5,40.4533686346164,-79.9470278022925,0.0,0.0584716796875,-0.964569091796875,0.200531005859375,-0.0170823141800953,-0.00414361234005429,0.000902012661209838
